SpectraSuite Data File
++++++++++++++++++++++++++++++++++++
Date: Tue Jul 14 12:22:06 EEST 2020
User: CanSEE
Dark Spectrum Present: No
Reference Spectrum Present: No
Number of Sampled Component Spectra: 1
Spectrometers: MAYP112785
Integration Time (usec): 100000 (MAYP112785)
Spectra Averaged: 1 (MAYP112785)
Boxcar Smoothing: 0 (MAYP112785)
Correct for Electrical Dark: No (MAYP112785)
Strobe/Lamp Enabled: No (MAYP112785)
Correct for Detector Non-linearity: No (MAYP112785)
Correct for Stray Light: No (MAYP112785)
Number of Pixels in Processed Spectrum: 2068
>>>>>Begin Processed Spectral Data<<<<<
198.73	3496.00
199.20	2492.00
199.67	2600.00
200.14	2581.00
200.61	2734.00
201.08	2721.00
201.56	2730.00
202.03	2810.00
202.50	2792.00
202.97	2790.00
203.44	2801.00
203.91	2789.00
204.39	2797.00
204.86	2822.00
205.33	2769.00
205.80	2797.00
206.27	2792.00
206.74	2790.00
207.21	2782.00
207.69	2786.00
208.16	2793.00
208.63	2781.00
209.10	2791.00
209.57	2801.00
210.04	2819.00
210.51	2815.00
210.98	2794.00
211.46	2808.00
211.93	2797.00
212.40	2788.00
212.87	2792.00
213.34	2799.00
213.81	2791.00
214.28	2790.00
214.75	2801.00
215.23	2806.00
215.70	2783.00
216.17	2812.00
216.64	2795.00
217.11	2779.00
217.58	2814.00
218.05	2819.00
218.52	2799.00
218.99	2818.00
219.46	2788.00
219.94	2820.00
220.41	2814.00
220.88	2804.00
221.35	2803.00
221.82	2814.00
222.29	2813.00
222.76	2808.00
223.23	2812.00
223.70	2796.00
224.17	2815.00
224.64	2794.00
225.11	2783.00
225.58	2802.00
226.06	2804.00
226.53	2808.00
227.00	2793.00
227.47	2829.00
227.94	2816.00
228.41	2802.00
228.88	2846.00
229.35	2832.00
229.82	2808.00
230.29	2804.00
230.76	2811.00
231.23	2821.00
231.70	2804.00
232.17	2820.00
232.64	2803.00
233.11	2827.00
233.58	2790.00
234.05	2816.00
234.52	2809.00
235.00	2825.00
235.47	2803.00
235.94	2802.00
236.41	2811.00
236.88	2809.00
237.35	2804.00
237.82	2808.00
238.29	2810.00
238.76	2787.00
239.23	2829.00
239.70	3528.00
240.17	2782.00
240.64	2835.00
241.11	2822.00
241.58	2813.00
242.05	2816.00
242.52	2803.00
242.99	2809.00
243.46	2821.00
243.93	2824.00
244.40	2814.00
244.87	2816.00
245.34	2825.00
245.81	2876.00
246.28	2821.00
246.75	2817.00
247.22	2803.00
247.69	2809.00
248.16	2821.00
248.63	2860.00
249.10	2796.00
249.57	2805.00
250.04	2807.00
250.51	2837.00
250.98	2795.00
251.44	2796.00
251.91	2837.00
252.38	2800.00
252.85	2799.00
253.32	2811.00
253.79	2804.00
254.26	2805.00
254.73	2831.00
255.20	2822.00
255.67	2804.00
256.14	2813.00
256.61	2809.00
257.08	2806.00
257.55	2833.00
258.02	2799.00
258.49	2817.00
258.96	2832.00
259.43	2847.00
259.90	2827.00
260.36	2817.00
260.83	2826.00
261.30	2832.00
261.77	2854.00
262.24	2841.00
262.71	2806.00
263.18	2831.00
263.65	2814.00
264.12	2838.00
264.59	2821.00
265.06	2869.00
265.53	2835.00
265.99	2827.00
266.46	2826.00
266.93	2813.00
267.40	2844.00
267.87	2837.00
268.34	2825.00
268.81	2807.00
269.28	2821.00
269.75	2819.00
270.22	2815.00
270.68	2822.00
271.15	2845.00
271.62	2838.00
272.09	2837.00
272.56	2823.00
273.03	2818.00
273.50	2829.00
273.97	2811.00
274.43	2813.00
274.90	2821.00
275.37	2842.00
275.84	2833.00
276.31	2792.00
276.78	2826.00
277.25	2828.00
277.71	2816.00
278.18	2793.00
278.65	2816.00
279.12	2804.00
279.59	2830.00
280.06	2818.00
280.53	2857.00
280.99	2826.00
281.46	2829.00
281.93	2821.00
282.40	2804.00
282.87	2831.00
283.34	2813.00
283.80	2801.00
284.27	2827.00
284.74	2835.00
285.21	2813.00
285.68	2811.00
286.15	2811.00
286.61	2779.00
287.08	2821.00
287.55	2797.00
288.02	2829.00
288.49	2805.00
288.95	2806.00
289.42	2805.00
289.89	2825.00
290.36	2803.00
290.83	2807.00
291.29	2817.00
291.76	2807.00
292.23	2789.00
292.70	2839.00
293.17	2815.00
293.63	2817.00
294.10	2800.00
294.57	2805.00
295.04	2795.00
295.51	2785.00
295.97	2784.00
296.44	2815.00
296.91	2797.00
297.38	2802.00
297.84	2866.00
298.31	2802.00
298.78	2834.00
299.25	2820.00
299.71	2834.00
300.18	2829.00
300.65	2833.00
301.12	2822.00
301.58	2825.00
302.05	2875.00
302.52	2887.00
302.99	2887.00
303.45	2885.00
303.92	2935.00
304.39	2961.00
304.86	2979.00
305.32	3024.00
305.79	3009.00
306.26	3063.00
306.73	3096.00
307.19	3118.00
307.66	3165.00
308.13	3229.00
308.60	3261.00
309.06	3272.00
309.53	3296.00
310.00	3313.00
310.46	3390.00
310.93	3540.00
311.40	3707.00
311.87	3779.00
312.33	3807.00
312.80	3813.00
313.27	3890.00
313.73	3968.00
314.20	4019.00
314.67	4049.00
315.13	4119.00
315.60	4159.00
316.07	4185.00
316.53	4118.00
317.00	4341.00
317.47	4524.00
317.94	4669.00
318.40	4604.00
318.87	4514.00
319.34	4679.00
319.80	4795.00
320.27	4880.00
320.74	5028.00
321.20	5128.00
321.67	5099.00
322.14	4933.00
322.60	5056.00
323.07	5010.00
323.54	4935.00
324.00	5171.00
324.47	5300.00
324.93	5600.00
325.40	5609.00
325.87	5860.00
326.33	6223.00
326.80	6575.00
327.27	6507.00
327.73	6426.00
328.20	6506.00
328.67	6407.00
329.13	6536.00
329.60	6844.00
330.06	7131.00
330.53	7226.00
331.00	7055.00
331.46	6777.00
331.93	6863.00
332.40	6929.00
332.86	6946.00
333.33	6990.00
333.79	6955.00
334.26	6818.00
334.73	6919.00
335.19	7056.00
335.66	7071.00
336.12	6990.00
336.59	6861.00
337.06	6564.00
337.52	6618.00
337.99	6767.00
338.45	7006.00
338.92	7204.00
339.38	7413.00
339.85	7465.00
340.32	7678.00
340.78	7952.00
341.25	7784.00
341.71	7719.00
342.18	7652.00
342.64	7870.00
343.11	7998.00
343.58	7984.00
344.04	7870.00
344.51	7590.00
344.97	7247.00
345.44	7558.00
345.90	8221.00
346.37	8152.00
346.83	8073.00
347.30	8318.00
347.77	8381.00
348.23	8215.00
348.70	8324.00
349.16	8449.00
349.63	8386.00
350.09	8432.00
350.56	8922.00
351.02	9254.00
351.49	9098.00
351.95	8887.00
352.42	8843.00
352.88	8771.00
353.35	8743.00
353.81	9348.00
354.28	9642.00
354.74	9774.00
355.21	9778.00
355.67	9626.00
356.14	9413.00
356.60	9171.00
357.07	8827.00
357.53	8251.00
358.00	8205.00
358.46	8240.00
358.93	7951.00
359.39	8165.00
359.86	9235.00
360.32	9786.00
360.79	9692.00
361.25	9266.00
361.72	8973.00
362.18	9173.00
362.65	9372.00
363.11	9779.00
363.58	10169.00
364.04	9866.00
364.51	10197.00
364.97	10384.00
365.43	10252.00
365.90	10845.00
366.36	11484.00
366.83	11588.00
367.29	11402.00
367.76	11411.00
368.22	11327.00
368.69	11094.00
369.15	11012.00
369.61	11391.00
370.08	11695.00
370.54	11867.00
371.01	11474.00
371.47	11041.00
371.94	11477.00
372.40	11407.00
372.86	10531.00
373.33	10584.00
373.79	10352.00
374.26	9867.00
374.72	10253.00
375.19	10431.00
375.65	10460.00
376.11	11464.00
376.58	11944.00
377.04	12056.00
377.51	12281.00
377.97	13045.00
378.43	13537.00
378.90	13654.00
379.36	12976.00
379.82	12188.00
380.29	12012.00
380.75	12327.00
381.22	12776.00
381.68	12584.00
382.14	11482.00
382.61	10557.00
383.07	10011.00
383.53	9692.00
384.00	9858.00
384.46	10257.00
384.93	11377.00
385.39	12353.00
385.85	12419.00
386.32	11986.00
386.78	12029.00
387.24	12441.00
387.71	12459.00
388.17	12467.00
388.63	12770.00
389.10	12930.00
389.56	13605.00
390.02	14520.00
390.49	15013.00
390.95	15115.00
391.41	15091.00
391.88	15142.00
392.34	14627.00
392.80	13385.00
393.27	12128.00
393.73	10767.00
394.19	10682.00
394.66	12545.00
395.12	14304.00
395.58	15079.00
396.05	15394.00
396.51	14777.00
396.97	13472.00
397.43	12513.00
397.90	13879.00
398.36	16913.00
398.82	19328.00
399.29	20373.00
399.75	21055.00
400.21	21570.00
400.67	21628.00
401.14	22099.00
401.60	22294.00
402.06	22879.00
402.53	23094.00
402.99	23201.00
403.45	23064.00
403.91	22536.00
404.38	22766.00
404.84	22846.00
405.30	22392.00
405.76	22578.00
406.23	22790.00
406.69	22549.00
407.15	22481.00
407.61	22982.00
408.08	23445.00
408.54	23515.00
409.00	23998.00
409.46	24601.00
409.93	24547.00
410.39	23940.00
410.85	23258.00
411.31	24061.00
411.77	25489.00
412.24	26071.00
412.70	26024.00
413.16	26105.00
413.62	25918.00
414.09	25843.00
414.55	26379.00
415.01	26306.00
415.47	26311.00
415.93	26641.00
416.40	26432.00
416.86	27066.00
417.32	26982.00
417.78	26451.00
418.24	26105.00
418.71	26249.00
419.17	26489.00
419.63	26646.00
420.09	27067.00
420.55	26825.00
421.01	27100.00
421.48	27836.00
421.94	28029.00
422.40	27589.00
422.86	27290.00
423.32	26383.00
423.78	26705.00
424.25	27445.00
424.71	27574.00
425.17	27786.00
425.63	27493.00
426.09	27184.00
426.55	27321.00
427.01	27296.00
427.48	27553.00
427.94	26507.00
428.40	26486.00
428.86	26687.00
429.32	25828.00
429.78	24745.00
430.24	24245.00
430.71	23545.00
431.17	23586.00
431.63	24649.00
432.09	27107.00
432.55	29600.00
433.01	29521.00
433.47	28668.00
433.93	29764.00
434.39	29336.00
434.86	28742.00
435.32	30299.00
435.78	31489.00
436.24	31689.00
436.70	32069.00
437.16	32442.00
437.62	31562.00
438.08	31168.00
438.54	30677.00
439.00	30665.00
439.46	30264.00
439.93	31716.00
440.39	32582.00
440.85	33014.00
441.31	33231.00
441.77	34121.00
442.23	34972.00
442.69	35238.00
443.15	35596.00
443.61	35660.00
444.07	35790.00
444.53	35904.00
444.99	35821.00
445.45	36023.00
445.91	35874.00
446.37	35508.00
446.83	35901.00
447.29	36769.00
447.75	37560.00
448.21	38345.00
448.67	38579.00
449.14	38654.00
449.60	39126.00
450.06	39530.00
450.52	40144.00
450.98	40585.00
451.44	40702.00
451.90	40620.00
452.36	39898.00
452.82	39270.00
453.28	38910.00
453.74	38357.00
454.20	38971.00
454.66	39613.00
455.12	40095.00
455.58	40200.00
456.04	40389.00
456.50	41089.00
456.96	41628.00
457.42	41480.00
457.88	41568.00
458.33	41653.00
458.79	41066.00
459.25	40776.00
459.71	41115.00
460.17	41752.00
460.63	41780.00
461.09	42186.00
461.55	42736.00
462.01	43203.00
462.47	43017.00
462.93	43177.00
463.39	43236.00
463.85	42942.00
464.31	42532.00
464.77	42643.00
465.23	42707.00
465.69	42216.00
466.15	42426.00
466.61	42729.00
467.07	42631.00
467.52	42030.00
467.98	42469.00
468.44	43417.00
468.90	43246.00
469.36	43078.00
469.82	43014.00
470.28	42876.00
470.74	43041.00
471.20	42782.00
471.66	43764.00
472.12	44392.00
472.57	44683.00
473.03	45187.00
473.49	44674.00
473.95	44547.00
474.41	45121.00
474.87	45172.00
475.33	45464.00
475.79	45077.00
476.25	45032.00
476.70	45118.00
477.16	45374.00
477.62	45702.00
478.08	46243.00
478.54	46363.00
479.00	46934.00
479.46	46648.00
479.91	46530.00
480.37	47068.00
480.83	47128.00
481.29	47341.00
481.75	47409.00
482.21	47728.00
482.67	47630.00
483.12	47473.00
483.58	47050.00
484.04	46970.00
484.50	46525.00
484.96	45692.00
485.42	44517.00
485.87	43007.00
486.33	42150.00
486.79	41002.00
487.25	41660.00
487.71	43622.00
488.16	44840.00
488.62	45628.00
489.08	46334.00
489.54	46511.00
490.00	46768.00
490.45	47745.00
490.91	47946.00
491.37	47067.00
491.83	46600.00
492.29	46521.00
492.74	46338.00
493.20	46359.00
493.66	47795.00
494.12	48384.00
494.57	48213.00
495.03	48730.00
495.49	49164.00
495.95	49044.00
496.40	48881.00
496.86	48880.00
497.32	49242.00
497.78	48563.00
498.23	48372.00
498.69	48062.00
499.15	47550.00
499.61	47602.00
500.06	48026.00
500.52	47821.00
500.98	46659.00
501.44	46399.00
501.89	46617.00
502.35	46852.00
502.81	47158.00
503.27	47669.00
503.72	47574.00
504.18	47846.00
504.64	47872.00
505.09	47844.00
505.55	49234.00
506.01	49511.00
506.47	49788.00
506.92	49603.00
507.38	49154.00
507.84	48697.00
508.29	48874.00
508.75	49165.00
509.21	49266.00
509.66	49846.00
510.12	49928.00
510.58	49874.00
511.03	50017.00
511.49	50589.00
511.95	50496.00
512.40	50612.00
512.86	50241.00
513.32	49623.00
513.77	49217.00
514.23	49460.00
514.69	49493.00
515.14	49387.00
515.60	49524.00
516.06	48830.00
516.51	47475.00
516.97	46285.00
517.43	45575.00
517.88	44621.00
518.34	45383.00
518.79	47348.00
519.25	47396.00
519.71	48626.00
520.16	49658.00
520.62	50083.00
521.08	50755.00
521.53	50660.00
521.99	51043.00
522.44	51033.00
522.90	50978.00
523.36	51177.00
523.81	51381.00
524.27	52029.00
524.72	52802.00
525.18	53058.00
525.64	52534.00
526.09	51659.00
526.55	50293.00
527.00	49668.00
527.46	49116.00
527.92	49589.00
528.37	51630.00
528.83	53254.00
529.28	53562.00
529.74	53908.00
530.19	54255.00
530.65	54177.00
531.10	54356.00
531.56	54538.00
532.02	54204.00
532.47	53351.00
532.93	52613.00
533.38	52431.00
533.84	52382.00
534.29	53238.00
534.75	54107.00
535.20	54220.00
535.66	54922.00
536.11	55050.00
536.57	54598.00
537.02	54147.00
537.48	53978.00
537.93	53841.00
538.39	54370.00
538.84	54676.00
539.30	54047.00
539.75	53630.00
540.21	52687.00
540.66	52097.00
541.12	52655.00
541.57	52827.00
542.03	53552.00
542.48	53980.00
542.94	54100.00
543.39	54065.00
543.85	54316.00
544.30	54399.00
544.76	55006.00
545.21	55029.00
545.67	54810.00
546.12	54896.00
546.58	55136.00
547.03	55238.00
547.49	54624.00
547.94	54608.00
548.40	54585.00
548.85	55030.00
549.30	55412.00
549.76	55720.00
550.21	55328.00
550.67	55422.00
551.12	55559.00
551.58	55825.00
552.03	55914.00
552.48	55794.00
552.94	55574.00
553.39	55735.00
553.85	55440.00
554.30	56196.00
554.76	56294.00
555.21	56604.00
555.66	56580.00
556.12	56041.00
556.57	55777.00
557.03	55265.00
557.48	55095.00
557.93	55097.00
558.39	54897.00
558.84	54629.00
559.30	54300.00
559.75	53704.00
560.20	54060.00
560.66	55392.00
561.11	55616.00
561.56	55645.00
562.02	56191.00
562.47	55478.00
562.92	55700.00
563.38	55876.00
563.83	55841.00
564.29	56172.00
564.74	55764.00
565.19	55609.00
565.65	55428.00
566.10	54870.00
566.55	54935.00
567.01	55192.00
567.46	55587.00
567.91	55994.00
568.37	55849.00
568.82	55528.00
569.27	55036.00
569.73	55134.00
570.18	55233.00
570.63	54983.00
571.08	54608.00
571.54	54608.00
571.99	55151.00
572.44	55766.00
572.90	56505.00
573.35	56513.00
573.80	56749.00
574.26	56739.00
574.71	56519.00
575.16	56217.00
575.61	55858.00
576.07	55840.00
576.52	55832.00
576.97	56075.00
577.42	56234.00
577.88	56218.00
578.33	55749.00
578.78	55639.00
579.24	55748.00
579.69	55977.00
580.14	56269.00
580.59	56829.00
581.05	56908.00
581.50	57011.00
581.95	57044.00
582.40	57850.00
582.85	58014.00
583.31	57970.00
583.76	58312.00
584.21	57898.00
584.66	58212.00
585.12	57864.00
585.57	57404.00
586.02	56992.00
586.47	57017.00
586.92	56736.00
587.38	57300.00
587.83	57529.00
588.28	56789.00
588.73	54952.00
589.18	52990.00
589.64	51690.00
590.09	51564.00
590.54	52804.00
590.99	54826.00
591.44	55259.00
591.90	55410.00
592.35	55331.00
592.80	55484.00
593.25	55930.00
593.70	56333.00
594.15	56119.00
594.61	55552.00
595.06	55205.00
595.51	55252.00
595.96	55594.00
596.41	56197.00
596.86	56671.00
597.31	56432.00
597.77	56320.00
598.22	56283.00
598.67	55825.00
599.12	55758.00
599.57	56139.00
600.02	56222.00
600.47	56352.00
600.92	56060.00
601.38	55980.00
601.83	56087.00
602.28	55589.00
602.73	55829.00
603.18	56427.00
603.63	56963.00
604.08	57207.00
604.53	57644.00
604.98	57590.00
605.43	57761.00
605.89	57463.00
606.34	57421.00
606.79	57216.00
607.24	57728.00
607.69	57605.00
608.14	57548.00
608.59	57508.00
609.04	57043.00
609.49	57051.00
609.94	57082.00
610.39	56710.00
610.84	56780.00
611.29	57183.00
611.74	57300.00
612.19	56949.00
612.64	57012.00
613.10	57008.00
613.55	56598.00
614.00	56539.00
614.45	56151.00
614.90	56606.00
615.35	56898.00
615.80	56732.00
616.25	55876.00
616.70	55025.00
617.15	55176.00
617.60	55248.00
618.05	56368.00
618.50	56946.00
618.95	57476.00
619.40	56942.00
619.85	57261.00
620.30	57492.00
620.75	57528.00
621.20	57592.00
621.65	57165.00
622.10	56789.00
622.55	56406.00
623.00	56520.00
623.45	56424.00
623.89	56171.00
624.34	55904.00
624.79	55724.00
625.24	55486.00
625.69	55129.00
626.14	55331.00
626.59	55986.00
627.04	56151.00
627.49	56229.00
627.94	55439.00
628.39	54905.00
628.84	55209.00
629.29	55136.00
629.74	55616.00
630.19	55261.00
630.64	55518.00
631.09	55640.00
631.53	55892.00
631.98	55609.00
632.43	55602.00
632.88	56172.00
633.33	56451.00
633.78	56589.00
634.23	56317.00
634.68	56253.00
635.13	56738.00
635.58	57050.00
636.02	56888.00
636.47	56747.00
636.92	57001.00
637.37	57237.00
637.82	58231.00
638.27	57862.00
638.72	58280.00
639.16	58298.00
639.61	57910.00
640.06	57615.00
640.51	57110.00
640.96	56828.00
641.41	57071.00
641.86	57129.00
642.30	57058.00
642.75	57497.00
643.20	57250.00
643.65	57533.00
644.10	57334.00
644.55	57542.00
644.99	57551.00
645.44	57517.00
645.89	56836.00
646.34	56624.00
646.79	56314.00
647.23	56202.00
647.68	55716.00
648.13	55515.00
648.58	55530.00
649.03	55576.00
649.47	54920.00
649.92	54346.00
650.37	54636.00
650.82	55777.00
651.27	56541.00
651.71	56364.00
652.16	55894.00
652.61	55651.00
653.06	56404.00
653.50	56474.00
653.95	56769.00
654.40	56621.00
654.85	55761.00
655.29	54921.00
655.74	53992.00
656.19	51182.00
656.64	48053.00
657.08	48100.00
657.53	50310.00
657.98	53376.00
658.43	55080.00
658.87	55537.00
659.32	56052.00
659.77	55662.00
660.21	56304.00
660.66	56486.00
661.11	56654.00
661.56	56968.00
662.00	57112.00
662.45	57206.00
662.90	57254.00
663.34	56850.00
663.79	56501.00
664.24	56520.00
664.68	56647.00
665.13	56762.00
665.58	57148.00
666.02	56997.00
666.47	56953.00
666.92	56414.00
667.36	56556.00
667.81	56710.00
668.26	56385.00
668.70	56765.00
669.15	56922.00
669.60	57075.00
670.04	56825.00
670.49	56558.00
670.94	56421.00
671.38	56161.00
671.83	56003.00
672.28	56101.00
672.72	55900.00
673.17	55972.00
673.61	56394.00
674.06	56362.00
674.51	56148.00
674.95	56115.00
675.40	55858.00
675.85	55916.00
676.29	56233.00
676.74	56161.00
677.18	55848.00
677.63	55791.00
678.07	55850.00
678.52	55747.00
678.97	55635.00
679.41	55699.00
679.86	55883.00
680.30	55746.00
680.75	55858.00
681.20	55352.00
681.64	55316.00
682.09	55222.00
682.53	55418.00
682.98	55270.00
683.42	55094.00
683.87	55202.00
684.31	54587.00
684.76	54271.00
685.20	54234.00
685.65	54422.00
686.10	53741.00
686.54	53297.00
686.99	49611.00
687.43	43667.00
687.88	40933.00
688.32	42621.00
688.77	46136.00
689.21	46886.00
689.66	46665.00
690.10	46678.00
690.55	47149.00
690.99	48252.00
691.44	48945.00
691.88	49750.00
692.33	50199.00
692.77	50574.00
693.22	50413.00
693.66	50093.00
694.11	49824.00
694.55	48930.00
695.00	49015.00
695.44	49594.00
695.88	49832.00
696.33	50296.00
696.77	51092.00
697.22	52263.00
697.66	52760.00
698.11	51848.00
698.55	51156.00
699.00	50852.00
699.44	50512.00
699.88	50363.00
700.33	50114.00
700.77	49993.00
701.22	49912.00
701.66	49908.00
702.11	49658.00
702.55	49386.00
702.99	49338.00
703.44	50060.00
703.88	50420.00
704.33	50881.00
704.77	50949.00
705.21	51514.00
705.66	51225.00
706.10	50971.00
706.54	50990.00
706.99	51052.00
707.43	51181.00
707.88	51298.00
708.32	51215.00
708.76	51318.00
709.21	51089.00
709.65	51319.00
710.09	51485.00
710.54	51456.00
710.98	51393.00
711.42	51316.00
711.87	50999.00
712.31	50875.00
712.76	50548.00
713.20	50631.00
713.64	50476.00
714.08	50736.00
714.53	50891.00
714.97	50320.00
715.41	49410.00
715.86	49161.00
716.30	48920.00
716.74	47588.00
717.19	44752.00
717.63	42149.00
718.07	40121.00
718.52	39649.00
718.96	38162.00
719.40	37535.00
719.84	37105.00
720.29	37369.00
720.73	37289.00
721.17	38672.00
721.62	41977.00
722.06	44592.00
722.50	45220.00
722.94	45095.00
723.39	43934.00
723.83	41303.00
724.27	39851.00
724.71	39317.00
725.16	39821.00
725.60	39419.00
726.04	39907.00
726.48	40257.00
726.93	40507.00
727.37	41278.00
727.81	40643.00
728.25	39373.00
728.69	40853.00
729.14	41163.00
729.58	39550.00
730.02	40144.00
730.46	41116.00
730.90	40965.00
731.35	41175.00
731.79	41769.00
732.23	42334.00
732.67	43840.00
733.11	44924.00
733.56	45088.00
734.00	45153.00
734.44	46254.00
734.88	46352.00
735.32	45918.00
735.76	45791.00
736.21	45773.00
736.65	45657.00
737.09	45629.00
737.53	45910.00
737.97	46112.00
738.41	46400.00
738.85	45693.00
739.30	44968.00
739.74	45182.00
740.18	45926.00
740.62	46369.00
741.06	46153.00
741.50	45888.00
741.94	45680.00
742.38	45711.00
742.83	45823.00
743.27	46200.00
743.71	46777.00
744.15	46641.00
744.59	46592.00
745.03	46066.00
745.47	46406.00
745.91	47146.00
746.35	47328.00
746.79	47018.00
747.23	46839.00
747.68	47508.00
748.12	47131.00
748.56	46945.00
749.00	46985.00
749.44	46584.00
749.88	46630.00
750.32	46616.00
750.76	46871.00
751.20	47093.00
751.64	46505.00
752.08	47066.00
752.52	47162.00
752.96	46767.00
753.40	46962.00
753.84	46876.00
754.28	46888.00
754.72	46955.00
755.16	47038.00
755.60	46952.00
756.04	46948.00
756.48	47001.00
756.92	47082.00
757.36	46858.00
757.80	46663.00
758.24	46365.00
758.68	45630.00
759.12	44779.00
759.56	41870.00
760.00	31790.00
760.44	19981.00
760.88	13194.00
761.32	12075.00
761.76	15879.00
762.20	23535.00
762.64	26812.00
763.08	23884.00
763.52	21412.00
763.96	21597.00
764.40	23107.00
764.84	25197.00
765.28	27979.00
765.72	30521.00
766.15	32774.00
766.59	34987.00
767.03	37306.00
767.47	39532.00
767.91	41279.00
768.35	42316.00
768.79	42928.00
769.23	43646.00
769.67	43598.00
770.11	43585.00
770.55	43927.00
770.98	44848.00
771.42	44944.00
771.86	44704.00
772.30	44911.00
772.74	45161.00
773.18	45104.00
773.62	45012.00
774.06	45066.00
774.49	44656.00
774.93	44134.00
775.37	43228.00
775.81	43534.00
776.25	44394.00
776.69	44351.00
777.13	44502.00
777.56	44521.00
778.00	44384.00
778.44	44242.00
778.88	44224.00
779.32	43891.00
779.76	43769.00
780.19	43378.00
780.63	43378.00
781.07	43038.00
781.51	43054.00
781.95	43392.00
782.38	43517.00
782.82	43860.00
783.26	43730.00
783.70	43095.00
784.14	42996.00
784.57	42983.00
785.01	43204.00
785.45	42564.00
785.89	42252.00
786.32	42118.00
786.76	42159.00
787.20	41790.00
787.64	41568.00
788.07	41447.00
788.51	41681.00
788.95	41639.00
789.39	41292.00
789.82	40833.00
790.26	40183.00
790.70	40208.00
791.14	40303.00
791.57	39761.00
792.01	39512.00
792.45	39238.00
792.88	39118.00
793.32	39145.00
793.76	38930.00
794.20	39308.00
794.63	39516.00
795.07	39524.00
795.51	39757.00
795.94	40015.00
796.38	38835.00
796.82	38205.00
797.25	38461.00
797.69	38502.00
798.13	38826.00
798.56	38854.00
799.00	38648.00
799.44	38771.00
799.87	38480.00
800.31	38064.00
800.75	38090.00
801.18	38141.00
801.62	38154.00
802.06	38048.00
802.49	38009.00
802.93	37485.00
803.37	37124.00
803.80	36868.00
804.24	37197.00
804.67	36988.00
805.11	36464.00
805.55	37050.00
805.98	37746.00
806.42	37980.00
806.85	37985.00
807.29	37976.00
807.73	37314.00
808.16	37368.00
808.60	36906.00
809.03	36642.00
809.47	36127.00
809.91	35601.00
810.34	35110.00
810.78	35508.00
811.21	35368.00
811.65	34812.00
812.08	34972.00
812.52	34591.00
812.96	34243.00
813.39	33317.00
813.83	31638.00
814.26	31131.00
814.70	30663.00
815.13	29508.00
815.57	28718.00
816.00	28439.00
816.44	27948.00
816.87	26641.00
817.31	27416.00
817.74	28963.00
818.18	27486.00
818.61	27717.00
819.05	28906.00
819.48	29126.00
819.92	28637.00
820.35	28679.00
820.79	31147.00
821.22	32044.00
821.66	31502.00
822.09	30769.00
822.53	29343.00
822.96	25954.00
823.40	23221.00
823.83	25603.00
824.27	29155.00
824.70	30402.00
825.13	31653.00
825.57	32298.00
826.00	31001.00
826.44	30854.00
826.87	31821.00
827.31	31722.00
827.74	29573.00
828.17	28400.00
828.61	28779.00
829.04	29078.00
829.48	28787.00
829.91	29051.00
830.35	29760.00
830.78	29622.00
831.21	30152.00
831.65	30551.00
832.08	30116.00
832.52	29586.00
832.95	30717.00
833.38	30428.00
833.82	30080.00
834.25	30032.00
834.68	30445.00
835.12	30892.00
835.55	31321.00
835.98	31042.00
836.42	31042.00
836.85	31426.00
837.29	31626.00
837.72	31750.00
838.15	31923.00
838.59	32163.00
839.02	32103.00
839.45	32539.00
839.89	33002.00
840.32	32806.00
840.75	32586.00
841.18	32027.00
841.62	31660.00
842.05	31686.00
842.48	31820.00
842.92	31983.00
843.35	31976.00
843.78	31549.00
844.22	31703.00
844.65	31842.00
845.08	32392.00
845.51	32785.00
845.95	33101.00
846.38	33004.00
846.81	32748.00
847.24	32177.00
847.68	32120.00
848.11	32106.00
848.54	31765.00
848.97	31565.00
849.41	31019.00
849.84	29656.00
850.27	28646.00
850.70	30037.00
851.14	31243.00
851.57	31156.00
852.00	31172.00
852.43	31702.00
852.87	31902.00
853.30	31652.00
853.73	30735.00
854.16	27777.00
854.59	25394.00
855.03	27439.00
855.46	29348.00
855.89	30098.00
856.32	30572.00
856.75	30898.00
857.18	31105.00
857.62	31010.00
858.05	31375.00
858.48	31339.00
858.91	31309.00
859.34	31349.00
859.77	31628.00
860.21	31581.00
860.64	31732.00
861.07	31620.00
861.50	31326.00
861.93	31391.00
862.36	30884.00
862.79	30854.00
863.23	30781.00
863.66	30711.00
864.09	30569.00
864.52	30832.00
864.95	30366.00
865.38	30377.00
865.81	29786.00
866.24	27323.00
866.67	26489.00
867.10	28692.00
867.54	30134.00
867.97	30627.00
868.40	30586.00
868.83	30348.00
869.26	30141.00
869.69	30271.00
870.12	29997.00
870.55	29975.00
870.98	29986.00
871.41	29456.00
871.84	29542.00
872.27	30021.00
872.70	29955.00
873.13	29687.00
873.56	29761.00
873.99	29513.00
874.42	29631.00
874.85	29757.00
875.28	29657.00
875.71	29684.00
876.14	29794.00
876.57	29730.00
877.00	29364.00
877.43	29073.00
877.86	29090.00
878.29	28958.00
878.72	28940.00
879.15	28594.00
879.58	28626.00
880.01	28648.00
880.44	28615.00
880.87	27698.00
881.30	28496.00
881.73	29265.00
882.16	29070.00
882.59	29013.00
883.02	29413.00
883.45	29514.00
883.88	29525.00
884.31	29330.00
884.74	29290.00
885.17	28993.00
885.60	28756.00
886.03	28126.00
886.46	27815.00
886.88	27828.00
887.31	28192.00
887.74	28458.00
888.17	28466.00
888.60	28642.00
889.03	28882.00
889.46	28539.00
889.89	28620.00
890.32	28460.00
890.75	28684.00
891.17	28592.00
891.60	28394.00
892.03	28295.00
892.46	27981.00
892.89	27092.00
893.32	26766.00
893.75	26721.00
894.17	26164.00
894.60	25196.00
895.03	24517.00
895.46	23774.00
895.89	24032.00
896.32	22746.00
896.74	22022.00
897.17	21909.00
897.60	21958.00
898.03	22570.00
898.46	22162.00
898.89	18694.00
899.31	19295.00
899.74	22255.00
900.17	20902.00
900.60	20301.00
901.02	20406.00
901.45	20612.00
901.88	20756.00
902.31	20555.00
902.74	21119.00
903.16	22652.00
903.59	24020.00
904.02	24030.00
904.45	24161.00
904.87	24239.00
905.30	23798.00
905.73	23942.00
906.16	22213.00
906.58	21746.00
907.01	20471.00
907.44	20484.00
907.87	20173.00
908.29	20392.00
908.72	20001.00
909.15	19980.00
909.57	20021.00
910.00	19603.00
910.43	19765.00
910.86	20202.00
911.28	21241.00
911.71	20117.00
912.14	20656.00
912.56	20511.00
912.99	18427.00
913.42	17544.00
913.84	18984.00
914.27	20478.00
914.70	20376.00
915.12	18236.00
915.55	17788.00
915.98	19698.00
916.40	20825.00
916.83	20277.00
917.26	18286.00
917.68	18402.00
918.11	19632.00
918.53	20309.00
918.96	21005.00
919.39	20543.00
919.81	21217.00
920.24	21977.00
920.66	21140.00
921.09	20745.00
921.52	20186.00
921.94	20636.00
922.37	20871.00
922.79	20261.00
923.22	19964.00
923.65	19458.00
924.07	19448.00
924.50	19493.00
924.92	19704.00
925.35	19739.00
925.77	19301.00
926.20	19489.00
926.63	19740.00
927.05	18778.00
927.48	17180.00
927.90	15794.00
928.33	15176.00
928.75	14794.00
929.18	14222.00
929.60	13101.00
930.03	12555.00
930.45	12139.00
930.88	11389.00
931.30	10198.00
931.73	9212.00
932.15	8525.00
932.58	8650.00
933.00	8269.00
933.43	7026.00
933.85	6578.00
934.28	6745.00
934.70	8492.00
935.13	7724.00
935.55	7050.00
935.98	7728.00
936.40	7085.00
936.83	6458.00
937.25	6831.00
937.68	6475.00
938.10	7249.00
938.52	8426.00
938.95	9743.00
939.37	9773.00
939.80	8741.00
940.22	8452.00
940.65	8071.00
941.07	8004.00
941.49	8164.00
941.92	8063.00
942.34	7189.00
942.77	6987.00
943.19	7815.00
943.61	6535.00
944.04	6242.00
944.46	7383.00
944.89	7661.00
945.31	6821.00
945.73	6664.00
946.16	7237.00
946.58	7372.00
947.00	7712.00
947.43	7601.00
947.85	7226.00
948.27	8224.00
948.70	8718.00
949.12	7483.00
949.54	6737.00
949.97	7816.00
950.39	9350.00
950.81	9596.00
951.24	8228.00
951.66	7325.00
952.08	7600.00
952.51	8259.00
952.93	9152.00
953.35	9292.00
953.78	8866.00
954.20	8511.00
954.62	9054.00
955.04	8580.00
955.47	9101.00
955.89	9036.00
956.31	8846.00
956.74	10024.00
957.16	11011.00
957.58	10092.00
958.00	10232.00
958.43	9153.00
958.85	8957.00
959.27	9659.00
959.69	10662.00
960.12	10495.00
960.54	11226.00
960.96	11609.00
961.38	11032.00
961.80	10503.00
962.23	11063.00
962.65	12305.00
963.07	11569.00
963.49	11484.00
963.91	11489.00
964.34	11953.00
964.76	12490.00
965.18	12415.00
965.60	11768.00
966.02	11922.00
966.45	12681.00
966.87	14146.00
967.29	14231.00
967.71	14120.00
968.13	14638.00
968.55	14810.00
968.98	14965.00
969.40	14525.00
969.82	14923.00
970.24	15331.00
970.66	15233.00
971.08	14975.00
971.50	14906.00
971.92	14340.00
972.35	14452.00
972.77	13880.00
973.19	13430.00
973.61	13751.00
974.03	13869.00
974.45	13935.00
974.87	13592.00
975.29	13417.00
975.71	13372.00
976.13	14151.00
976.56	14408.00
976.98	14351.00
977.40	13935.00
977.82	14113.00
978.24	14097.00
978.66	14016.00
979.08	14397.00
979.50	14278.00
979.92	14813.00
980.34	15082.00
980.76	15099.00
981.18	14941.00
981.60	14801.00
982.02	14695.00
982.44	14883.00
982.86	15317.00
983.28	15261.00
983.70	14991.00
984.12	14885.00
984.54	14950.00
984.96	14963.00
985.38	14917.00
985.80	14857.00
986.22	14650.00
986.64	14546.00
987.06	14842.00
987.48	14811.00
987.90	14877.00
988.32	14898.00
988.74	14852.00
989.16	14787.00
989.58	14806.00
990.00	14852.00
990.42	14899.00
990.84	14666.00
991.26	14666.00
991.67	14638.00
992.09	14575.00
992.51	14536.00
992.93	14536.00
993.35	14734.00
993.77	14598.00
994.19	14551.00
994.61	14274.00
995.03	14410.00
995.45	14280.00
995.87	14213.00
996.28	14261.00
996.70	14349.00
997.12	14630.00
997.54	14636.00
997.96	14715.00
998.38	14625.00
998.80	14640.00
999.21	14762.00
999.63	14792.00
1000.05	14714.00
1000.47	14600.00
1000.89	14598.00
1001.31	14419.00
1001.72	14503.00
1002.14	14477.00
1002.56	14438.00
1002.98	14205.00
1003.40	14267.00
1003.82	13953.00
1004.23	14014.00
1004.65	14108.00
1005.07	14089.00
1005.49	14093.00
1005.90	14048.00
1006.32	13975.00
1006.74	13902.00
1007.16	13874.00
1007.58	13739.00
1007.99	13830.00
1008.41	13747.00
1008.83	13846.00
1009.25	13759.00
1009.66	13815.00
1010.08	13689.00
1010.50	13714.00
1010.92	13630.00
1011.33	13461.00
1011.75	13430.00
1012.17	13433.00
1012.58	13285.00
1013.00	13114.00
1013.42	12998.00
1013.84	12978.00
1014.25	12841.00
1014.67	12838.00
1015.09	12740.00
1015.50	12751.00
1015.92	12626.00
1016.34	12579.00
1016.75	12405.00
1017.17	12307.00
1017.59	12225.00
1018.00	12006.00
1018.42	12041.00
1018.84	11766.00
1019.25	11730.00
1019.67	11851.00
1020.09	11704.00
1020.50	11575.00
1020.92	11480.00
1021.33	11570.00
1021.75	11560.00
1022.17	11445.00
1022.58	11467.00
1023.00	11388.00
1023.42	11182.00
1023.83	11136.00
1024.25	11073.00
1024.66	11013.00
1025.08	11032.00
1025.50	10917.00
1025.91	10844.00
1026.33	10714.00
1026.74	10684.00
1027.16	10520.00
1027.57	10493.00
1027.99	10392.00
1028.40	10316.00
1028.82	10281.00
1029.24	10233.00
1029.65	10012.00
1030.07	10019.00
1030.48	9860.00
1030.90	9955.00
1031.31	9625.00
1031.73	9691.00
1032.14	9616.00
1032.56	9531.00
1032.97	9474.00
1033.39	9459.00
1033.80	9428.00
1034.22	9380.00
1034.63	9332.00
1035.05	9249.00
1035.46	9105.00
1035.88	9022.00
1036.29	9020.00
1036.71	8998.00
1037.12	8907.00
1037.54	8907.00
1037.95	8722.00
1038.36	8651.00
1038.78	8614.00
1039.19	8567.00
1039.61	8564.00
1040.02	8480.00
1040.44	8364.00
1040.85	8383.00
1041.27	8306.00
1041.68	8181.00
1042.09	8170.00
1042.51	8055.00
1042.92	7955.00
1043.34	7909.00
1043.75	7911.00
1044.16	7728.00
1044.58	7676.00
1044.99	7658.00
1045.40	7555.00
1045.82	7517.00
1046.23	7540.00
1046.65	7491.00
1047.06	7378.00
1047.47	7407.00
1047.89	7301.00
1048.30	7251.00
1048.71	7125.00
1049.13	7220.00
1049.54	7073.00
1049.95	7011.00
1050.37	6939.00
1050.78	6862.00
1051.19	6861.00
1051.61	6735.00
1052.02	6723.00
1052.43	6694.00
1052.85	6736.00
1053.26	6636.00
1053.67	6599.00
1054.08	6467.00
1054.50	6521.00
1054.91	6411.00
1055.32	6331.00
1055.74	6287.00
1056.15	6198.00
1056.56	6057.00
1056.97	6044.00
1057.39	6026.00
1057.80	5970.00
1058.21	5947.00
1058.62	5896.00
1059.03	5859.00
1059.45	5864.00
1059.86	5824.00
1060.27	5843.00
1060.68	5664.00
1061.10	5692.00
1061.51	5584.00
1061.92	5559.00
1062.33	5534.00
1062.74	5492.00
1063.16	5519.00
1063.57	5427.00
1063.98	5416.00
1064.39	5399.00
1064.80	5310.00
1065.21	5258.00
1065.63	5230.00
1066.04	5256.00
1066.45	5117.00
1066.86	5080.00
1067.27	5089.00
1067.68	5043.00
1068.10	5032.00
1068.51	5022.00
1068.92	4918.00
1069.33	4879.00
1069.74	4886.00
1070.15	4853.00
1070.56	4787.00
1070.97	4740.00
1071.38	4737.00
1071.80	4712.00
1072.21	4707.00
1072.62	4708.00
1073.03	4589.00
1073.44	4648.00
1073.85	4576.00
1074.26	4507.00
1074.67	4523.00
1075.08	4484.00
1075.49	4425.00
1075.90	4447.00
1076.31	4443.00
1076.72	4384.00
1077.13	4370.00
1077.54	4334.00
1077.95	4327.00
1078.36	4286.00
1078.77	4226.00
1079.19	4264.00
1079.60	4267.00
1080.01	4184.00
1080.42	4162.00
1080.83	4084.00
1081.24	4145.00
1081.65	4068.00
1082.05	4036.00
1082.46	3995.00
1082.87	4049.00
1083.28	3946.00
1083.69	3945.00
1084.10	3909.00
1084.51	3908.00
1084.92	3877.00
1085.33	3842.00
1085.74	3864.00
1086.15	4172.00
1086.56	3822.00
1086.97	3841.00
1087.38	3783.00
1087.79	3785.00
1088.20	3748.00
1088.61	3741.00
1089.02	3683.00
1089.42	3675.00
1089.83	3639.00
1090.24	3645.00
1090.65	3633.00
1091.06	3582.00
1091.47	3565.00
1091.88	3555.00
1092.29	3521.00
1092.70	3553.00
1093.10	3479.00
1093.51	3449.00
1093.92	3399.00
1094.33	3426.00
1094.74	3419.00
1095.15	3374.00
1095.55	3346.00
1095.96	3357.00
1096.37	3264.00
1096.78	3271.00
1097.19	3248.00
1097.60	3249.00
1098.00	3226.00
1098.41	3171.00
1098.82	3190.00
1099.23	3153.00
1099.64	3142.00
1100.04	3143.00
1100.45	3114.00
1100.86	3115.00
1101.27	3101.00
1101.67	3086.00
1102.08	3036.00
1102.49	3069.00
1102.90	3034.00
1103.31	2995.00
1103.71	2987.00
1104.12	2976.00
1104.53	2966.00
1104.93	2952.00
1105.34	2947.00
1105.75	2928.00
1106.16	2919.00
1106.56	2911.00
1106.97	2887.00
1107.38	2889.00
1107.78	2884.00
1108.19	2866.00
1108.60	2884.00
1109.01	2845.00
1109.41	2865.00
1109.82	2832.00
1110.23	2828.00
1110.63	2827.00
1111.04	2800.00
1111.45	2812.00
1111.85	2816.00
1112.26	2782.00
1112.67	2795.00
1113.07	2796.00
1113.48	2752.00
1113.88	2769.00
1114.29	2746.00
1114.70	2575.00
1115.10	2581.00
1115.51	2580.00
1115.92	2575.00
>>>>>End Processed Spectral Data<<<<<
