SpectraSuite Data File
++++++++++++++++++++++++++++++++++++
Date: Tue Jul 14 12:22:06 EEST 2020
User: CanSEE
Dark Spectrum Present: No
Reference Spectrum Present: No
Number of Sampled Component Spectra: 1
Spectrometers: MAYP112785
Integration Time (usec): 100000 (MAYP112785)
Spectra Averaged: 1 (MAYP112785)
Boxcar Smoothing: 0 (MAYP112785)
Correct for Electrical Dark: No (MAYP112785)
Strobe/Lamp Enabled: No (MAYP112785)
Correct for Detector Non-linearity: No (MAYP112785)
Correct for Stray Light: No (MAYP112785)
Number of Pixels in Processed Spectrum: 2068
>>>>>Begin Processed Spectral Data<<<<<
198.73	3491.00
199.20	2491.00
199.67	2593.00
200.14	2579.00
200.61	2719.00
201.08	2726.00
201.56	2732.00
202.03	2801.00
202.50	2801.00
202.97	2792.00
203.44	2786.00
203.91	2783.00
204.39	2773.00
204.86	2816.00
205.33	2759.00
205.80	2789.00
206.27	2793.00
206.74	2799.00
207.21	2793.00
207.69	2786.00
208.16	2790.00
208.63	2773.00
209.10	2789.00
209.57	2807.00
210.04	2817.00
210.51	2809.00
210.98	2788.00
211.46	2789.00
211.93	2816.00
212.40	2797.00
212.87	2801.00
213.34	2799.00
213.81	2791.00
214.28	2796.00
214.75	2798.00
215.23	2798.00
215.70	2794.00
216.17	2808.00
216.64	2785.00
217.11	2782.00
217.58	2795.00
218.05	2828.00
218.52	2798.00
218.99	2809.00
219.46	2795.00
219.94	2800.00
220.41	2814.00
220.88	2809.00
221.35	2812.00
221.82	2815.00
222.29	2826.00
222.76	2802.00
223.23	2796.00
223.70	2797.00
224.17	2818.00
224.64	2815.00
225.11	2796.00
225.58	2805.00
226.06	2797.00
226.53	2832.00
227.00	2824.00
227.47	2820.00
227.94	2806.00
228.41	2796.00
228.88	2844.00
229.35	2828.00
229.82	2816.00
230.29	2809.00
230.76	2821.00
231.23	2798.00
231.70	2806.00
232.17	2795.00
232.64	2800.00
233.11	2816.00
233.58	2793.00
234.05	2815.00
234.52	2818.00
235.00	2825.00
235.47	2821.00
235.94	2795.00
236.41	2812.00
236.88	2806.00
237.35	2811.00
237.82	2806.00
238.29	2827.00
238.76	2795.00
239.23	2814.00
239.70	3539.00
240.17	2795.00
240.64	2824.00
241.11	2837.00
241.58	2811.00
242.05	2825.00
242.52	2808.00
242.99	2829.00
243.46	2815.00
243.93	2813.00
244.40	2824.00
244.87	2808.00
245.34	2807.00
245.81	2897.00
246.28	2812.00
246.75	2794.00
247.22	2825.00
247.69	2826.00
248.16	2810.00
248.63	2829.00
249.10	2784.00
249.57	2815.00
250.04	2833.00
250.51	2814.00
250.98	2816.00
251.44	2804.00
251.91	2832.00
252.38	2822.00
252.85	2808.00
253.32	2809.00
253.79	2808.00
254.26	2813.00
254.73	2826.00
255.20	2845.00
255.67	2797.00
256.14	2829.00
256.61	2798.00
257.08	2820.00
257.55	2843.00
258.02	2818.00
258.49	2813.00
258.96	2833.00
259.43	2843.00
259.90	2828.00
260.36	2814.00
260.83	2820.00
261.30	2840.00
261.77	2829.00
262.24	2811.00
262.71	2824.00
263.18	2815.00
263.65	2809.00
264.12	2828.00
264.59	2828.00
265.06	2859.00
265.53	2825.00
265.99	2832.00
266.46	2819.00
266.93	2805.00
267.40	2811.00
267.87	2837.00
268.34	2824.00
268.81	2824.00
269.28	2821.00
269.75	2825.00
270.22	2833.00
270.68	2820.00
271.15	2843.00
271.62	2816.00
272.09	2820.00
272.56	2803.00
273.03	2824.00
273.50	2820.00
273.97	2810.00
274.43	2803.00
274.90	2842.00
275.37	2816.00
275.84	2806.00
276.31	2813.00
276.78	2819.00
277.25	2812.00
277.71	2817.00
278.18	2792.00
278.65	2822.00
279.12	2813.00
279.59	2825.00
280.06	2822.00
280.53	2853.00
280.99	2820.00
281.46	2825.00
281.93	2812.00
282.40	2821.00
282.87	2804.00
283.34	2814.00
283.80	2814.00
284.27	2811.00
284.74	2796.00
285.21	2813.00
285.68	2812.00
286.15	2809.00
286.61	2798.00
287.08	2817.00
287.55	2789.00
288.02	2806.00
288.49	2818.00
288.95	2822.00
289.42	2825.00
289.89	2844.00
290.36	2789.00
290.83	2808.00
291.29	2818.00
291.76	2794.00
292.23	2807.00
292.70	2827.00
293.17	2799.00
293.63	2832.00
294.10	2799.00
294.57	2798.00
295.04	2812.00
295.51	2790.00
295.97	2813.00
296.44	2818.00
296.91	2799.00
297.38	2813.00
297.84	2861.00
298.31	2796.00
298.78	2824.00
299.25	2825.00
299.71	2837.00
300.18	2829.00
300.65	2812.00
301.12	2814.00
301.58	2833.00
302.05	2858.00
302.52	2876.00
302.99	2883.00
303.45	2893.00
303.92	2931.00
304.39	2952.00
304.86	2994.00
305.32	2990.00
305.79	3037.00
306.26	3040.00
306.73	3062.00
307.19	3132.00
307.66	3213.00
308.13	3261.00
308.60	3264.00
309.06	3282.00
309.53	3306.00
310.00	3349.00
310.46	3395.00
310.93	3535.00
311.40	3695.00
311.87	3747.00
312.33	3791.00
312.80	3823.00
313.27	3905.00
313.73	3948.00
314.20	4069.00
314.67	4055.00
315.13	4092.00
315.60	4172.00
316.07	4134.00
316.53	4143.00
317.00	4343.00
317.47	4554.00
317.94	4678.00
318.40	4612.00
318.87	4558.00
319.34	4736.00
319.80	4758.00
320.27	4838.00
320.74	5040.00
321.20	5117.00
321.67	4996.00
322.14	4948.00
322.60	5031.00
323.07	4993.00
323.54	4929.00
324.00	5214.00
324.47	5342.00
324.93	5590.00
325.40	5684.00
325.87	5882.00
326.33	6267.00
326.80	6545.00
327.27	6494.00
327.73	6527.00
328.20	6494.00
328.67	6453.00
329.13	6557.00
329.60	6845.00
330.06	7196.00
330.53	7223.00
331.00	6963.00
331.46	6852.00
331.93	6857.00
332.40	6936.00
332.86	7033.00
333.33	6977.00
333.79	6906.00
334.26	6840.00
334.73	6918.00
335.19	7049.00
335.66	7126.00
336.12	7023.00
336.59	6911.00
337.06	6573.00
337.52	6615.00
337.99	6720.00
338.45	7049.00
338.92	7191.00
339.38	7403.00
339.85	7519.00
340.32	7729.00
340.78	7891.00
341.25	7850.00
341.71	7680.00
342.18	7692.00
342.64	7913.00
343.11	8019.00
343.58	7968.00
344.04	7882.00
344.51	7572.00
344.97	7234.00
345.44	7625.00
345.90	8109.00
346.37	8153.00
346.83	8152.00
347.30	8392.00
347.77	8398.00
348.23	8258.00
348.70	8311.00
349.16	8445.00
349.63	8418.00
350.09	8500.00
350.56	8793.00
351.02	9279.00
351.49	9121.00
351.95	8933.00
352.42	8936.00
352.88	8733.00
353.35	8796.00
353.81	9286.00
354.28	9655.00
354.74	9797.00
355.21	9878.00
355.67	9681.00
356.14	9386.00
356.60	9208.00
357.07	8807.00
357.53	8302.00
358.00	8283.00
358.46	8194.00
358.93	7952.00
359.39	8255.00
359.86	9298.00
360.32	9889.00
360.79	9684.00
361.25	9171.00
361.72	9048.00
362.18	9172.00
362.65	9439.00
363.11	9900.00
363.58	10052.00
364.04	9829.00
364.51	10151.00
364.97	10346.00
365.43	10330.00
365.90	10818.00
366.36	11452.00
366.83	11600.00
367.29	11358.00
367.76	11425.00
368.22	11221.00
368.69	11110.00
369.15	11068.00
369.61	11322.00
370.08	11778.00
370.54	11839.00
371.01	11466.00
371.47	11035.00
371.94	11490.00
372.40	11402.00
372.86	10553.00
373.33	10606.00
373.79	10429.00
374.26	9937.00
374.72	10188.00
375.19	10449.00
375.65	10481.00
376.11	11550.00
376.58	11876.00
377.04	11968.00
377.51	12479.00
377.97	12962.00
378.43	13706.00
378.90	13553.00
379.36	13134.00
379.82	12262.00
380.29	11929.00
380.75	12245.00
381.22	12769.00
381.68	12463.00
382.14	11392.00
382.61	10552.00
383.07	9962.00
383.53	9626.00
384.00	9856.00
384.46	10427.00
384.93	11267.00
385.39	12327.00
385.85	12416.00
386.32	11951.00
386.78	11940.00
387.24	12455.00
387.71	12400.00
388.17	12454.00
388.63	12765.00
389.10	12989.00
389.56	13446.00
390.02	14491.00
390.49	15141.00
390.95	15119.00
391.41	15095.00
391.88	15207.00
392.34	14600.00
392.80	13393.00
393.27	12081.00
393.73	10685.00
394.19	10663.00
394.66	12463.00
395.12	14214.00
395.58	15094.00
396.05	15347.00
396.51	14723.00
396.97	13508.00
397.43	12556.00
397.90	13858.00
398.36	16970.00
398.82	19307.00
399.29	20461.00
399.75	20911.00
400.21	21426.00
400.67	21745.00
401.14	22203.00
401.60	22326.00
402.06	22843.00
402.53	23088.00
402.99	23030.00
403.45	22766.00
403.91	22475.00
404.38	22551.00
404.84	23067.00
405.30	22178.00
405.76	22635.00
406.23	22797.00
406.69	22470.00
407.15	22468.00
407.61	23040.00
408.08	23438.00
408.54	23571.00
409.00	24172.00
409.46	24462.00
409.93	24476.00
410.39	23747.00
410.85	23184.00
411.31	24148.00
411.77	25488.00
412.24	25993.00
412.70	26144.00
413.16	25857.00
413.62	25705.00
414.09	25899.00
414.55	26294.00
415.01	26431.00
415.47	26289.00
415.93	26597.00
416.40	26276.00
416.86	26931.00
417.32	26890.00
417.78	26402.00
418.24	26092.00
418.71	26273.00
419.17	26362.00
419.63	26501.00
420.09	26937.00
420.55	26862.00
421.01	26916.00
421.48	27868.00
421.94	27860.00
422.40	27712.00
422.86	27128.00
423.32	26641.00
423.78	26779.00
424.25	27580.00
424.71	27636.00
425.17	27777.00
425.63	27505.00
426.09	27143.00
426.55	27195.00
427.01	27533.00
427.48	27542.00
427.94	26568.00
428.40	26514.00
428.86	26572.00
429.32	25707.00
429.78	24715.00
430.24	24148.00
430.71	23567.00
431.17	23614.00
431.63	24642.00
432.09	27092.00
432.55	29610.00
433.01	29525.00
433.47	28698.00
433.93	29931.00
434.39	29508.00
434.86	28763.00
435.32	30101.00
435.78	31541.00
436.24	31571.00
436.70	32210.00
437.16	32335.00
437.62	31629.00
438.08	31048.00
438.54	30672.00
439.00	30470.00
439.46	30299.00
439.93	31811.00
440.39	32506.00
440.85	33077.00
441.31	33241.00
441.77	34285.00
442.23	35181.00
442.69	35298.00
443.15	35658.00
443.61	35619.00
444.07	35603.00
444.53	35692.00
444.99	35778.00
445.45	36037.00
445.91	36235.00
446.37	35732.00
446.83	35713.00
447.29	36806.00
447.75	37682.00
448.21	38377.00
448.67	38433.00
449.14	38442.00
449.60	39005.00
450.06	39606.00
450.52	40161.00
450.98	40904.00
451.44	40884.00
451.90	40283.00
452.36	39650.00
452.82	39065.00
453.28	38749.00
453.74	38506.00
454.20	38999.00
454.66	39732.00
455.12	40301.00
455.58	40239.00
456.04	40459.00
456.50	40979.00
456.96	41720.00
457.42	41362.00
457.88	41388.00
458.33	41569.00
458.79	41289.00
459.25	40824.00
459.71	41103.00
460.17	41664.00
460.63	41769.00
461.09	42261.00
461.55	42888.00
462.01	43213.00
462.47	43214.00
462.93	43180.00
463.39	43081.00
463.85	43113.00
464.31	42749.00
464.77	42494.00
465.23	42543.00
465.69	42232.00
466.15	42350.00
466.61	42806.00
467.07	42686.00
467.52	41938.00
467.98	42459.00
468.44	43135.00
468.90	43157.00
469.36	43219.00
469.82	43165.00
470.28	42812.00
470.74	42641.00
471.20	42789.00
471.66	43628.00
472.12	44250.00
472.57	44658.00
473.03	44930.00
473.49	44917.00
473.95	44422.00
474.41	44941.00
474.87	45252.00
475.33	45455.00
475.79	45293.00
476.25	44969.00
476.70	44937.00
477.16	45355.00
477.62	45637.00
478.08	46317.00
478.54	46588.00
479.00	46744.00
479.46	46354.00
479.91	46595.00
480.37	47059.00
480.83	47615.00
481.29	47204.00
481.75	47603.00
482.21	47336.00
482.67	48083.00
483.12	47184.00
483.58	46971.00
484.04	47035.00
484.50	46690.00
484.96	45765.00
485.42	44508.00
485.87	43086.00
486.33	41920.00
486.79	40961.00
487.25	41669.00
487.71	44031.00
488.16	44769.00
488.62	45532.00
489.08	46320.00
489.54	46510.00
490.00	46883.00
490.45	47487.00
490.91	47807.00
491.37	47300.00
491.83	46695.00
492.29	46691.00
492.74	46608.00
493.20	46474.00
493.66	47494.00
494.12	48505.00
494.57	48332.00
495.03	48622.00
495.49	48943.00
495.95	49260.00
496.40	48735.00
496.86	48710.00
497.32	49088.00
497.78	48089.00
498.23	48273.00
498.69	47927.00
499.15	47694.00
499.61	47789.00
500.06	48017.00
500.52	47694.00
500.98	46868.00
501.44	46304.00
501.89	46453.00
502.35	46688.00
502.81	47219.00
503.27	47481.00
503.72	47547.00
504.18	47888.00
504.64	47541.00
505.09	48023.00
505.55	49096.00
506.01	49508.00
506.47	49700.00
506.92	49860.00
507.38	48928.00
507.84	48809.00
508.29	49096.00
508.75	49332.00
509.21	49149.00
509.66	49777.00
510.12	49940.00
510.58	49818.00
511.03	49883.00
511.49	50454.00
511.95	50491.00
512.40	50452.00
512.86	50318.00
513.32	49645.00
513.77	49026.00
514.23	49456.00
514.69	49318.00
515.14	49395.00
515.60	49257.00
516.06	48863.00
516.51	47661.00
516.97	46518.00
517.43	45573.00
517.88	44517.00
518.34	45407.00
518.79	47224.00
519.25	47414.00
519.71	48293.00
520.16	49518.00
520.62	50123.00
521.08	50786.00
521.53	50752.00
521.99	50709.00
522.44	50809.00
522.90	50649.00
523.36	50997.00
523.81	51373.00
524.27	52026.00
524.72	52752.00
525.18	52970.00
525.64	52648.00
526.09	51652.00
526.55	50354.00
527.00	49480.00
527.46	49124.00
527.92	49647.00
528.37	51510.00
528.83	53420.00
529.28	53675.00
529.74	54036.00
530.19	53994.00
530.65	53754.00
531.10	54061.00
531.56	54905.00
532.02	54271.00
532.47	53138.00
532.93	52648.00
533.38	52678.00
533.84	52354.00
534.29	53357.00
534.75	53799.00
535.20	54038.00
535.66	54590.00
536.11	54905.00
536.57	54470.00
537.02	54397.00
537.48	53780.00
537.93	53821.00
538.39	54322.00
538.84	54462.00
539.30	54062.00
539.75	53463.00
540.21	52906.00
540.66	52225.00
541.12	52576.00
541.57	52742.00
542.03	53348.00
542.48	54008.00
542.94	54028.00
543.39	53998.00
543.85	54434.00
544.30	54467.00
544.76	54925.00
545.21	55156.00
545.67	54836.00
546.12	55280.00
546.58	55040.00
547.03	55019.00
547.49	54720.00
547.94	54607.00
548.40	54675.00
548.85	54561.00
549.30	55471.00
549.76	55539.00
550.21	55554.00
550.67	55593.00
551.12	55462.00
551.58	55551.00
552.03	55872.00
552.48	55595.00
552.94	55678.00
553.39	55658.00
553.85	55490.00
554.30	55958.00
554.76	56170.00
555.21	56724.00
555.66	56364.00
556.12	56368.00
556.57	55739.00
557.03	55281.00
557.48	55024.00
557.93	55105.00
558.39	54738.00
558.84	54408.00
559.30	54295.00
559.75	53907.00
560.20	54205.00
560.66	55327.00
561.11	55305.00
561.56	55503.00
562.02	55758.00
562.47	55561.00
562.92	55823.00
563.38	55890.00
563.83	55953.00
564.29	55741.00
564.74	55853.00
565.19	55700.00
565.65	55390.00
566.10	55066.00
566.55	54951.00
567.01	55103.00
567.46	55768.00
567.91	55978.00
568.37	55551.00
568.82	55372.00
569.27	55276.00
569.73	55106.00
570.18	55198.00
570.63	54768.00
571.08	54314.00
571.54	54576.00
571.99	54903.00
572.44	55718.00
572.90	56631.00
573.35	56656.00
573.80	56806.00
574.26	56562.00
574.71	56603.00
575.16	56277.00
575.61	55734.00
576.07	55497.00
576.52	55611.00
576.97	56058.00
577.42	56096.00
577.88	56079.00
578.33	55831.00
578.78	55393.00
579.24	55569.00
579.69	55889.00
580.14	56142.00
580.59	56758.00
581.05	56882.00
581.50	57288.00
581.95	57342.00
582.40	57771.00
582.85	57918.00
583.31	58253.00
583.76	58030.00
584.21	58231.00
584.66	58089.00
585.12	58044.00
585.57	57365.00
586.02	56814.00
586.47	56835.00
586.92	57068.00
587.38	57433.00
587.83	57120.00
588.28	56673.00
588.73	55237.00
589.18	52800.00
589.64	51633.00
590.09	51496.00
590.54	52708.00
590.99	54432.00
591.44	55355.00
591.90	55542.00
592.35	55464.00
592.80	55754.00
593.25	55779.00
593.70	56035.00
594.15	55881.00
594.61	55636.00
595.06	55084.00
595.51	55342.00
595.96	55551.00
596.41	56201.00
596.86	56233.00
597.31	56576.00
597.77	56162.00
598.22	56086.00
598.67	55759.00
599.12	55822.00
599.57	56270.00
600.02	56228.00
600.47	56347.00
600.92	56281.00
601.38	55977.00
601.83	55706.00
602.28	55816.00
602.73	55756.00
603.18	56507.00
603.63	57004.00
604.08	57564.00
604.53	57654.00
604.98	57721.00
605.43	57594.00
605.89	57535.00
606.34	57352.00
606.79	57370.00
607.24	57509.00
607.69	57864.00
608.14	57446.00
608.59	57300.00
609.04	57001.00
609.49	57026.00
609.94	56720.00
610.39	56749.00
610.84	56587.00
611.29	57151.00
611.74	57048.00
612.19	57073.00
612.64	56747.00
613.10	57038.00
613.55	56507.00
614.00	56046.00
614.45	56265.00
614.90	56422.00
615.35	56778.00
615.80	56468.00
616.25	56146.00
616.70	55154.00
617.15	54769.00
617.60	55308.00
618.05	56044.00
618.50	56881.00
618.95	57246.00
619.40	57381.00
619.85	57160.00
620.30	57394.00
620.75	57759.00
621.20	57828.00
621.65	57276.00
622.10	57122.00
622.55	56841.00
623.00	56634.00
623.45	56271.00
623.89	56384.00
624.34	55869.00
624.79	55920.00
625.24	55552.00
625.69	55097.00
626.14	55344.00
626.59	55660.00
627.04	56311.00
627.49	56272.00
627.94	55382.00
628.39	54671.00
628.84	54879.00
629.29	55448.00
629.74	55794.00
630.19	55394.00
630.64	55215.00
631.09	55673.00
631.53	55702.00
631.98	55509.00
632.43	55674.00
632.88	55865.00
633.33	56473.00
633.78	56400.00
634.23	56625.00
634.68	56308.00
635.13	56494.00
635.58	57044.00
636.02	57123.00
636.47	57105.00
636.92	57178.00
637.37	57543.00
637.82	57822.00
638.27	57833.00
638.72	58296.00
639.16	57941.00
639.61	57841.00
640.06	57433.00
640.51	57296.00
640.96	57239.00
641.41	56940.00
641.86	57380.00
642.30	56845.00
642.75	57616.00
643.20	57449.00
643.65	57604.00
644.10	57464.00
644.55	57265.00
644.99	57307.00
645.44	57135.00
645.89	57006.00
646.34	56574.00
646.79	56280.00
647.23	55796.00
647.68	55378.00
648.13	55524.00
648.58	55395.00
649.03	55458.00
649.47	55107.00
649.92	54372.00
650.37	54776.00
650.82	55769.00
651.27	56640.00
651.71	56276.00
652.16	55583.00
652.61	55854.00
653.06	56423.00
653.50	56631.00
653.95	56649.00
654.40	56446.00
654.85	55881.00
655.29	54941.00
655.74	53810.00
656.19	51397.00
656.64	47756.00
657.08	48104.00
657.53	50355.00
657.98	53345.00
658.43	55022.00
658.87	55556.00
659.32	55912.00
659.77	55450.00
660.21	56258.00
660.66	56351.00
661.11	56700.00
661.56	56526.00
662.00	56694.00
662.45	57180.00
662.90	57229.00
663.34	56828.00
663.79	56602.00
664.24	56261.00
664.68	56496.00
665.13	56932.00
665.58	57024.00
666.02	57141.00
666.47	56547.00
666.92	56536.00
667.36	56745.00
667.81	56561.00
668.26	56402.00
668.70	56629.00
669.15	56710.00
669.60	56874.00
670.04	56431.00
670.49	56334.00
670.94	56296.00
671.38	56286.00
671.83	56290.00
672.28	55556.00
672.72	56130.00
673.17	56215.00
673.61	55996.00
674.06	56217.00
674.51	56143.00
674.95	56021.00
675.40	55804.00
675.85	55896.00
676.29	56096.00
676.74	56082.00
677.18	55891.00
677.63	55748.00
678.07	55824.00
678.52	55542.00
678.97	55668.00
679.41	55778.00
679.86	55636.00
680.30	55659.00
680.75	55682.00
681.20	55476.00
681.64	55335.00
682.09	55383.00
682.53	55063.00
682.98	55413.00
683.42	55290.00
683.87	55127.00
684.31	54673.00
684.76	54218.00
685.20	54310.00
685.65	54472.00
686.10	54022.00
686.54	53081.00
686.99	49210.00
687.43	43435.00
687.88	40680.00
688.32	42908.00
688.77	45946.00
689.21	47049.00
689.66	46737.00
690.10	46648.00
690.55	47160.00
690.99	48038.00
691.44	49027.00
691.88	49467.00
692.33	50118.00
692.77	50597.00
693.22	50495.00
693.66	50303.00
694.11	49575.00
694.55	49116.00
695.00	49102.00
695.44	49463.00
695.88	49928.00
696.33	50139.00
696.77	50956.00
697.22	52046.00
697.66	52705.00
698.11	52051.00
698.55	51422.00
699.00	50709.00
699.44	50486.00
699.88	50298.00
700.33	50409.00
700.77	50238.00
701.22	49790.00
701.66	49966.00
702.11	49530.00
702.55	49611.00
702.99	49256.00
703.44	49855.00
703.88	50472.00
704.33	50455.00
704.77	51098.00
705.21	51356.00
705.66	51315.00
706.10	51149.00
706.54	50795.00
706.99	51000.00
707.43	50855.00
707.88	51305.00
708.32	51424.00
708.76	51379.00
709.21	51126.00
709.65	51267.00
710.09	51425.00
710.54	51360.00
710.98	51509.00
711.42	51063.00
711.87	51002.00
712.31	50764.00
712.76	50805.00
713.20	50591.00
713.64	50718.00
714.08	50558.00
714.53	50742.00
714.97	50360.00
715.41	49468.00
715.86	49094.00
716.30	48747.00
716.74	47458.00
717.19	44638.00
717.63	41785.00
718.07	40308.00
718.52	39481.00
718.96	38099.00
719.40	37419.00
719.84	37120.00
720.29	37426.00
720.73	37350.00
721.17	38759.00
721.62	41828.00
722.06	44661.00
722.50	45485.00
722.94	45048.00
723.39	43779.00
723.83	41092.00
724.27	39888.00
724.71	39197.00
725.16	39702.00
725.60	39448.00
726.04	39903.00
726.48	40336.00
726.93	40432.00
727.37	41261.00
727.81	40894.00
728.25	39590.00
728.69	40717.00
729.14	41373.00
729.58	39657.00
730.02	40107.00
730.46	41194.00
730.90	41052.00
731.35	41363.00
731.79	41567.00
732.23	42238.00
732.67	43616.00
733.11	44493.00
733.56	44882.00
734.00	45213.00
734.44	46247.00
734.88	46545.00
735.32	45743.00
735.76	45628.00
736.21	45666.00
736.65	45351.00
737.09	45725.00
737.53	45604.00
737.97	46199.00
738.41	46351.00
738.85	45857.00
739.30	44967.00
739.74	45140.00
740.18	45634.00
740.62	46399.00
741.06	46585.00
741.50	45908.00
741.94	45765.00
742.38	46016.00
742.83	45592.00
743.27	46032.00
743.71	46722.00
744.15	46482.00
744.59	46350.00
745.03	46341.00
745.47	46573.00
745.91	46938.00
746.35	47340.00
746.79	47043.00
747.23	47046.00
747.68	47272.00
748.12	46936.00
748.56	47140.00
749.00	46932.00
749.44	46824.00
749.88	46481.00
750.32	46741.00
750.76	46952.00
751.20	47094.00
751.64	46673.00
752.08	47029.00
752.52	47322.00
752.96	46830.00
753.40	46584.00
753.84	46835.00
754.28	46958.00
754.72	46910.00
755.16	46956.00
755.60	46971.00
756.04	47139.00
756.48	46988.00
756.92	46958.00
757.36	46925.00
757.80	46262.00
758.24	46315.00
758.68	45796.00
759.12	44458.00
759.56	41626.00
760.00	31684.00
760.44	20033.00
760.88	13146.00
761.32	12112.00
761.76	15837.00
762.20	23433.00
762.64	26885.00
763.08	23895.00
763.52	21401.00
763.96	21497.00
764.40	23056.00
764.84	25307.00
765.28	27811.00
765.72	30405.00
766.15	32945.00
766.59	34872.00
767.03	37119.00
767.47	39606.00
767.91	41189.00
768.35	42376.00
768.79	43112.00
769.23	43608.00
769.67	43265.00
770.11	43678.00
770.55	43939.00
770.98	44897.00
771.42	44698.00
771.86	44601.00
772.30	44938.00
772.74	45088.00
773.18	45022.00
773.62	44975.00
774.06	45031.00
774.49	44518.00
774.93	44113.00
775.37	43666.00
775.81	43660.00
776.25	44179.00
776.69	44256.00
777.13	44769.00
777.56	44739.00
778.00	44407.00
778.44	44070.00
778.88	44094.00
779.32	44098.00
779.76	43621.00
780.19	43303.00
780.63	43026.00
781.07	42849.00
781.51	43015.00
781.95	43434.00
782.38	43546.00
782.82	43748.00
783.26	43662.00
783.70	43265.00
784.14	42876.00
784.57	43061.00
785.01	43115.00
785.45	42461.00
785.89	42268.00
786.32	42058.00
786.76	42116.00
787.20	41713.00
787.64	41521.00
788.07	41281.00
788.51	41522.00
788.95	41584.00
789.39	41333.00
789.82	40489.00
790.26	40322.00
790.70	40233.00
791.14	40101.00
791.57	39657.00
792.01	39318.00
792.45	39138.00
792.88	39271.00
793.32	39110.00
793.76	38901.00
794.20	39310.00
794.63	39453.00
795.07	39381.00
795.51	39673.00
795.94	39713.00
796.38	38716.00
796.82	38185.00
797.25	38525.00
797.69	38618.00
798.13	38966.00
798.56	38986.00
799.00	38658.00
799.44	38876.00
799.87	38656.00
800.31	38030.00
800.75	38090.00
801.18	38354.00
801.62	38008.00
802.06	38212.00
802.49	37965.00
802.93	37350.00
803.37	36976.00
803.80	37259.00
804.24	37165.00
804.67	36960.00
805.11	36400.00
805.55	37175.00
805.98	37598.00
806.42	37992.00
806.85	38041.00
807.29	37714.00
807.73	37500.00
808.16	37274.00
808.60	36897.00
809.03	36442.00
809.47	36086.00
809.91	35661.00
810.34	35285.00
810.78	35567.00
811.21	35261.00
811.65	34938.00
812.08	34928.00
812.52	34652.00
812.96	34251.00
813.39	33313.00
813.83	31573.00
814.26	31474.00
814.70	30673.00
815.13	29463.00
815.57	28652.00
816.00	28750.00
816.44	27912.00
816.87	26624.00
817.31	27445.00
817.74	28721.00
818.18	27663.00
818.61	27557.00
819.05	29024.00
819.48	29039.00
819.92	28768.00
820.35	28592.00
820.79	31110.00
821.22	32246.00
821.66	31491.00
822.09	30608.00
822.53	29202.00
822.96	26001.00
823.40	23214.00
823.83	25586.00
824.27	29004.00
824.70	30454.00
825.13	31570.00
825.57	32236.00
826.00	30905.00
826.44	30917.00
826.87	31661.00
827.31	31832.00
827.74	29410.00
828.17	28408.00
828.61	28648.00
829.04	29222.00
829.48	28907.00
829.91	29286.00
830.35	29798.00
830.78	29455.00
831.21	30150.00
831.65	30444.00
832.08	29941.00
832.52	29593.00
832.95	30548.00
833.38	30499.00
833.82	29836.00
834.25	29929.00
834.68	30666.00
835.12	30944.00
835.55	31209.00
835.98	30984.00
836.42	30995.00
836.85	31224.00
837.29	31548.00
837.72	31524.00
838.15	32069.00
838.59	32268.00
839.02	32157.00
839.45	32722.00
839.89	32840.00
840.32	32799.00
840.75	32421.00
841.18	32077.00
841.62	31870.00
842.05	31760.00
842.48	31727.00
842.92	31941.00
843.35	31932.00
843.78	31672.00
844.22	31613.00
844.65	31910.00
845.08	32105.00
845.51	32647.00
845.95	33194.00
846.38	33053.00
846.81	32635.00
847.24	32280.00
847.68	32112.00
848.11	32005.00
848.54	31530.00
848.97	31458.00
849.41	31156.00
849.84	29756.00
850.27	28718.00
850.70	29997.00
851.14	31393.00
851.57	31136.00
852.00	31168.00
852.43	31784.00
852.87	31936.00
853.30	31637.00
853.73	30806.00
854.16	27792.00
854.59	25556.00
855.03	27366.00
855.46	29501.00
855.89	30157.00
856.32	30453.00
856.75	30969.00
857.18	31148.00
857.62	31068.00
858.05	31398.00
858.48	31307.00
858.91	31455.00
859.34	31446.00
859.77	31409.00
860.21	31607.00
860.64	31790.00
861.07	31627.00
861.50	31304.00
861.93	31175.00
862.36	31072.00
862.79	30801.00
863.23	30524.00
863.66	30654.00
864.09	30584.00
864.52	30868.00
864.95	30641.00
865.38	30310.00
865.81	29605.00
866.24	27132.00
866.67	26379.00
867.10	28859.00
867.54	30064.00
867.97	30499.00
868.40	30733.00
868.83	30271.00
869.26	30231.00
869.69	30136.00
870.12	30024.00
870.55	29929.00
870.98	29845.00
871.41	29776.00
871.84	29799.00
872.27	29993.00
872.70	29832.00
873.13	29727.00
873.56	29664.00
873.99	29383.00
874.42	29517.00
874.85	29731.00
875.28	29462.00
875.71	29599.00
876.14	29816.00
876.57	29558.00
877.00	29569.00
877.43	29011.00
877.86	28951.00
878.29	28993.00
878.72	28833.00
879.15	28524.00
879.58	28516.00
880.01	28783.00
880.44	28800.00
880.87	27787.00
881.30	28591.00
881.73	29021.00
882.16	29248.00
882.59	28964.00
883.02	29424.00
883.45	29416.00
883.88	29342.00
884.31	29404.00
884.74	29348.00
885.17	28988.00
885.60	28668.00
886.03	28223.00
886.46	27733.00
886.88	27601.00
887.31	28281.00
887.74	28428.00
888.17	28436.00
888.60	28515.00
889.03	28754.00
889.46	28589.00
889.89	28337.00
890.32	28628.00
890.75	28588.00
891.17	28551.00
891.60	28411.00
892.03	28178.00
892.46	27836.00
892.89	27065.00
893.32	26474.00
893.75	26790.00
894.17	26205.00
894.60	25271.00
895.03	24558.00
895.46	23810.00
895.89	23896.00
896.32	22603.00
896.74	22262.00
897.17	22051.00
897.60	22011.00
898.03	22629.00
898.46	21973.00
898.89	18804.00
899.31	19306.00
899.74	22216.00
900.17	20976.00
900.60	20299.00
901.02	20456.00
901.45	20517.00
901.88	20597.00
902.31	20505.00
902.74	21001.00
903.16	22625.00
903.59	24160.00
904.02	24155.00
904.45	24061.00
904.87	24231.00
905.30	23896.00
905.73	23789.00
906.16	22116.00
906.58	21851.00
907.01	20477.00
907.44	20471.00
907.87	20148.00
908.29	20137.00
908.72	19974.00
909.15	19936.00
909.57	20003.00
910.00	19685.00
910.43	19743.00
910.86	19921.00
911.28	21220.00
911.71	19929.00
912.14	20636.00
912.56	20430.00
912.99	18595.00
913.42	17652.00
913.84	18992.00
914.27	20463.00
914.70	20470.00
915.12	18351.00
915.55	17622.00
915.98	19625.00
916.40	20858.00
916.83	20251.00
917.26	18298.00
917.68	18566.00
918.11	19707.00
918.53	20334.00
918.96	21058.00
919.39	20526.00
919.81	21354.00
920.24	21855.00
920.66	21075.00
921.09	20627.00
921.52	19935.00
921.94	20801.00
922.37	20863.00
922.79	20410.00
923.22	19947.00
923.65	19497.00
924.07	19541.00
924.50	19492.00
924.92	19816.00
925.35	19777.00
925.77	19245.00
926.20	19527.00
926.63	19813.00
927.05	18918.00
927.48	17308.00
927.90	15726.00
928.33	15128.00
928.75	14944.00
929.18	14120.00
929.60	13092.00
930.03	12574.00
930.45	12066.00
930.88	11432.00
931.30	10127.00
931.73	9258.00
932.15	8490.00
932.58	8553.00
933.00	8136.00
933.43	7061.00
933.85	6707.00
934.28	6730.00
934.70	8511.00
935.13	7800.00
935.55	6978.00
935.98	7644.00
936.40	7074.00
936.83	6463.00
937.25	6906.00
937.68	6605.00
938.10	7197.00
938.52	8463.00
938.95	9776.00
939.37	9814.00
939.80	8787.00
940.22	8484.00
940.65	7955.00
941.07	8010.00
941.49	8132.00
941.92	8032.00
942.34	7105.00
942.77	7080.00
943.19	7723.00
943.61	6548.00
944.04	6241.00
944.46	7303.00
944.89	7672.00
945.31	6794.00
945.73	6649.00
946.16	7172.00
946.58	7383.00
947.00	7683.00
947.43	7610.00
947.85	7284.00
948.27	8291.00
948.70	8796.00
949.12	7437.00
949.54	6719.00
949.97	7750.00
950.39	9382.00
950.81	9577.00
951.24	8342.00
951.66	7253.00
952.08	7585.00
952.51	8234.00
952.93	9145.00
953.35	9405.00
953.78	8822.00
954.20	8546.00
954.62	9025.00
955.04	8502.00
955.47	9142.00
955.89	9051.00
956.31	8862.00
956.74	10097.00
957.16	11033.00
957.58	10174.00
958.00	10178.00
958.43	9160.00
958.85	8888.00
959.27	9690.00
959.69	10508.00
960.12	10510.00
960.54	11229.00
960.96	11543.00
961.38	11073.00
961.80	10480.00
962.23	11083.00
962.65	12324.00
963.07	11605.00
963.49	11513.00
963.91	11625.00
964.34	11929.00
964.76	12340.00
965.18	12434.00
965.60	11699.00
966.02	12057.00
966.45	12826.00
966.87	14125.00
967.29	14164.00
967.71	14061.00
968.13	14604.00
968.55	14794.00
968.98	14960.00
969.40	14618.00
969.82	14954.00
970.24	15217.00
970.66	15166.00
971.08	15040.00
971.50	14796.00
971.92	14452.00
972.35	14458.00
972.77	13811.00
973.19	13422.00
973.61	13740.00
974.03	13913.00
974.45	13898.00
974.87	13563.00
975.29	13400.00
975.71	13452.00
976.13	13999.00
976.56	14521.00
976.98	14239.00
977.40	13933.00
977.82	14089.00
978.24	14182.00
978.66	13847.00
979.08	14257.00
979.50	14234.00
979.92	14914.00
980.34	15042.00
980.76	15007.00
981.18	15006.00
981.60	14726.00
982.02	14699.00
982.44	14883.00
982.86	15120.00
983.28	15212.00
983.70	14892.00
984.12	14874.00
984.54	15109.00
984.96	14920.00
985.38	15041.00
985.80	14920.00
986.22	14606.00
986.64	14619.00
987.06	14777.00
987.48	14874.00
987.90	14842.00
988.32	14995.00
988.74	14824.00
989.16	14811.00
989.58	14930.00
990.00	14786.00
990.42	14768.00
990.84	14764.00
991.26	14758.00
991.67	14569.00
992.09	14437.00
992.51	14605.00
992.93	14622.00
993.35	14571.00
993.77	14500.00
994.19	14457.00
994.61	14443.00
995.03	14405.00
995.45	14278.00
995.87	14398.00
996.28	14300.00
996.70	14396.00
997.12	14380.00
997.54	14540.00
997.96	14611.00
998.38	14635.00
998.80	14721.00
999.21	14763.00
999.63	14705.00
1000.05	14775.00
1000.47	14723.00
1000.89	14441.00
1001.31	14570.00
1001.72	14581.00
1002.14	14423.00
1002.56	14404.00
1002.98	14287.00
1003.40	14257.00
1003.82	14085.00
1004.23	13982.00
1004.65	14094.00
1005.07	14094.00
1005.49	13920.00
1005.90	14073.00
1006.32	13916.00
1006.74	13883.00
1007.16	13906.00
1007.58	13699.00
1007.99	13756.00
1008.41	13735.00
1008.83	13804.00
1009.25	13687.00
1009.66	13687.00
1010.08	13726.00
1010.50	13705.00
1010.92	13575.00
1011.33	13563.00
1011.75	13394.00
1012.17	13308.00
1012.58	13160.00
1013.00	13149.00
1013.42	13039.00
1013.84	12967.00
1014.25	12988.00
1014.67	12877.00
1015.09	12774.00
1015.50	12692.00
1015.92	12639.00
1016.34	12532.00
1016.75	12446.00
1017.17	12344.00
1017.59	12170.00
1018.00	12031.00
1018.42	12032.00
1018.84	11886.00
1019.25	11873.00
1019.67	11788.00
1020.09	11674.00
1020.50	11629.00
1020.92	11610.00
1021.33	11560.00
1021.75	11516.00
1022.17	11491.00
1022.58	11445.00
1023.00	11280.00
1023.42	11293.00
1023.83	11196.00
1024.25	11071.00
1024.66	10957.00
1025.08	10990.00
1025.50	10865.00
1025.91	10812.00
1026.33	10632.00
1026.74	10700.00
1027.16	10590.00
1027.57	10436.00
1027.99	10369.00
1028.40	10315.00
1028.82	10277.00
1029.24	10143.00
1029.65	10075.00
1030.07	9908.00
1030.48	9878.00
1030.90	9884.00
1031.31	9699.00
1031.73	9684.00
1032.14	9565.00
1032.56	9497.00
1032.97	9425.00
1033.39	9424.00
1033.80	9385.00
1034.22	9384.00
1034.63	9216.00
1035.05	9252.00
1035.46	9137.00
1035.88	9088.00
1036.29	9089.00
1036.71	8888.00
1037.12	8933.00
1037.54	8875.00
1037.95	8722.00
1038.36	8830.00
1038.78	8649.00
1039.19	8574.00
1039.61	8469.00
1040.02	8572.00
1040.44	8340.00
1040.85	8290.00
1041.27	8205.00
1041.68	8192.00
1042.09	8170.00
1042.51	8050.00
1042.92	7945.00
1043.34	7919.00
1043.75	7820.00
1044.16	7692.00
1044.58	7663.00
1044.99	7654.00
1045.40	7524.00
1045.82	7528.00
1046.23	7524.00
1046.65	7417.00
1047.06	7474.00
1047.47	7381.00
1047.89	7307.00
1048.30	7275.00
1048.71	7186.00
1049.13	7135.00
1049.54	7002.00
1049.95	7040.00
1050.37	7021.00
1050.78	6893.00
1051.19	6859.00
1051.61	6858.00
1052.02	6783.00
1052.43	6768.00
1052.85	6695.00
1053.26	6670.00
1053.67	6610.00
1054.08	6522.00
1054.50	6460.00
1054.91	6425.00
1055.32	6378.00
1055.74	6228.00
1056.15	6229.00
1056.56	6130.00
1056.97	6043.00
1057.39	6035.00
1057.80	5988.00
1058.21	5905.00
1058.62	5900.00
1059.03	5852.00
1059.45	5844.00
1059.86	5732.00
1060.27	5727.00
1060.68	5685.00
1061.10	5630.00
1061.51	5617.00
1061.92	5632.00
1062.33	5539.00
1062.74	5547.00
1063.16	5507.00
1063.57	5485.00
1063.98	5325.00
1064.39	5386.00
1064.80	5346.00
1065.21	5268.00
1065.63	5278.00
1066.04	5201.00
1066.45	5119.00
1066.86	5104.00
1067.27	5069.00
1067.68	5056.00
1068.10	4976.00
1068.51	4971.00
1068.92	4946.00
1069.33	4907.00
1069.74	4888.00
1070.15	4818.00
1070.56	4777.00
1070.97	4755.00
1071.38	4771.00
1071.80	4696.00
1072.21	4673.00
1072.62	4651.00
1073.03	4668.00
1073.44	4618.00
1073.85	4599.00
1074.26	4529.00
1074.67	4558.00
1075.08	4520.00
1075.49	4494.00
1075.90	4460.00
1076.31	4427.00
1076.72	4390.00
1077.13	4365.00
1077.54	4359.00
1077.95	4302.00
1078.36	4317.00
1078.77	4259.00
1079.19	4241.00
1079.60	4209.00
1080.01	4211.00
1080.42	4187.00
1080.83	4092.00
1081.24	4115.00
1081.65	4062.00
1082.05	4064.00
1082.46	4027.00
1082.87	4050.00
1083.28	3970.00
1083.69	3922.00
1084.10	3889.00
1084.51	3878.00
1084.92	3867.00
1085.33	3850.00
1085.74	3840.00
1086.15	4194.00
1086.56	3833.00
1086.97	3802.00
1087.38	3792.00
1087.79	3780.00
1088.20	3769.00
1088.61	3717.00
1089.02	3684.00
1089.42	3680.00
1089.83	3619.00
1090.24	3621.00
1090.65	3600.00
1091.06	3589.00
1091.47	3604.00
1091.88	3579.00
1092.29	3556.00
1092.70	3524.00
1093.10	3504.00
1093.51	3444.00
1093.92	3436.00
1094.33	3453.00
1094.74	3391.00
1095.15	3385.00
1095.55	3365.00
1095.96	3323.00
1096.37	3305.00
1096.78	3279.00
1097.19	3276.00
1097.60	3224.00
1098.00	3208.00
1098.41	3224.00
1098.82	3182.00
1099.23	3154.00
1099.64	3179.00
1100.04	3120.00
1100.45	3132.00
1100.86	3136.00
1101.27	3120.00
1101.67	3080.00
1102.08	3059.00
1102.49	3044.00
1102.90	3026.00
1103.31	2993.00
1103.71	2988.00
1104.12	2985.00
1104.53	2998.00
1104.93	2952.00
1105.34	2954.00
1105.75	2940.00
1106.16	2911.00
1106.56	2925.00
1106.97	2889.00
1107.38	2885.00
1107.78	2878.00
1108.19	2883.00
1108.60	2884.00
1109.01	2845.00
1109.41	2848.00
1109.82	2835.00
1110.23	2795.00
1110.63	2815.00
1111.04	2815.00
1111.45	2816.00
1111.85	2821.00
1112.26	2785.00
1112.67	2783.00
1113.07	2812.00
1113.48	2774.00
1113.88	2756.00
1114.29	2755.00
1114.70	2578.00
1115.10	2581.00
1115.51	2578.00
1115.92	2580.00
>>>>>End Processed Spectral Data<<<<<
