SpectraSuite Data File
++++++++++++++++++++++++++++++++++++
Date: Tue Jul 14 12:22:05 EEST 2020
User: CanSEE
Dark Spectrum Present: No
Reference Spectrum Present: No
Number of Sampled Component Spectra: 1
Spectrometers: MAYP112785
Integration Time (usec): 100000 (MAYP112785)
Spectra Averaged: 1 (MAYP112785)
Boxcar Smoothing: 0 (MAYP112785)
Correct for Electrical Dark: No (MAYP112785)
Strobe/Lamp Enabled: No (MAYP112785)
Correct for Detector Non-linearity: No (MAYP112785)
Correct for Stray Light: No (MAYP112785)
Number of Pixels in Processed Spectrum: 2068
>>>>>Begin Processed Spectral Data<<<<<
198.73	3497.00
199.20	2487.00
199.67	2597.00
200.14	2580.00
200.61	2724.00
201.08	2721.00
201.56	2736.00
202.03	2810.00
202.50	2792.00
202.97	2783.00
203.44	2786.00
203.91	2789.00
204.39	2778.00
204.86	2804.00
205.33	2775.00
205.80	2784.00
206.27	2807.00
206.74	2800.00
207.21	2791.00
207.69	2788.00
208.16	2785.00
208.63	2795.00
209.10	2792.00
209.57	2806.00
210.04	2810.00
210.51	2805.00
210.98	2789.00
211.46	2786.00
211.93	2810.00
212.40	2792.00
212.87	2797.00
213.34	2793.00
213.81	2810.00
214.28	2781.00
214.75	2798.00
215.23	2793.00
215.70	2798.00
216.17	2814.00
216.64	2810.00
217.11	2792.00
217.58	2794.00
218.05	2815.00
218.52	2791.00
218.99	2830.00
219.46	2788.00
219.94	2811.00
220.41	2804.00
220.88	2814.00
221.35	2822.00
221.82	2800.00
222.29	2802.00
222.76	2810.00
223.23	2816.00
223.70	2808.00
224.17	2806.00
224.64	2803.00
225.11	2818.00
225.58	2809.00
226.06	2812.00
226.53	2836.00
227.00	2826.00
227.47	2815.00
227.94	2799.00
228.41	2823.00
228.88	2824.00
229.35	2840.00
229.82	2815.00
230.29	2817.00
230.76	2806.00
231.23	2811.00
231.70	2803.00
232.17	2817.00
232.64	2801.00
233.11	2821.00
233.58	2815.00
234.05	2823.00
234.52	2806.00
235.00	2834.00
235.47	2831.00
235.94	2796.00
236.41	2821.00
236.88	2807.00
237.35	2802.00
237.82	2800.00
238.29	2833.00
238.76	2794.00
239.23	2814.00
239.70	3522.00
240.17	2794.00
240.64	2808.00
241.11	2821.00
241.58	2816.00
242.05	2805.00
242.52	2811.00
242.99	2805.00
243.46	2808.00
243.93	2813.00
244.40	2816.00
244.87	2824.00
245.34	2816.00
245.81	2887.00
246.28	2813.00
246.75	2793.00
247.22	2805.00
247.69	2815.00
248.16	2827.00
248.63	2834.00
249.10	2796.00
249.57	2836.00
250.04	2825.00
250.51	2836.00
250.98	2811.00
251.44	2802.00
251.91	2816.00
252.38	2806.00
252.85	2804.00
253.32	2799.00
253.79	2807.00
254.26	2832.00
254.73	2833.00
255.20	2844.00
255.67	2823.00
256.14	2831.00
256.61	2804.00
257.08	2820.00
257.55	2844.00
258.02	2816.00
258.49	2802.00
258.96	2826.00
259.43	2831.00
259.90	2815.00
260.36	2823.00
260.83	2817.00
261.30	2839.00
261.77	2818.00
262.24	2815.00
262.71	2826.00
263.18	2817.00
263.65	2829.00
264.12	2831.00
264.59	2826.00
265.06	2857.00
265.53	2833.00
265.99	2834.00
266.46	2816.00
266.93	2803.00
267.40	2810.00
267.87	2828.00
268.34	2817.00
268.81	2821.00
269.28	2816.00
269.75	2803.00
270.22	2822.00
270.68	2821.00
271.15	2834.00
271.62	2823.00
272.09	2824.00
272.56	2800.00
273.03	2811.00
273.50	2806.00
273.97	2827.00
274.43	2823.00
274.90	2826.00
275.37	2846.00
275.84	2823.00
276.31	2791.00
276.78	2826.00
277.25	2817.00
277.71	2813.00
278.18	2798.00
278.65	2838.00
279.12	2816.00
279.59	2826.00
280.06	2824.00
280.53	2868.00
280.99	2817.00
281.46	2828.00
281.93	2808.00
282.40	2789.00
282.87	2822.00
283.34	2796.00
283.80	2815.00
284.27	2810.00
284.74	2821.00
285.21	2814.00
285.68	2821.00
286.15	2814.00
286.61	2793.00
287.08	2813.00
287.55	2807.00
288.02	2823.00
288.49	2811.00
288.95	2822.00
289.42	2807.00
289.89	2818.00
290.36	2814.00
290.83	2804.00
291.29	2801.00
291.76	2824.00
292.23	2813.00
292.70	2823.00
293.17	2817.00
293.63	2824.00
294.10	2778.00
294.57	2812.00
295.04	2795.00
295.51	2788.00
295.97	2810.00
296.44	2832.00
296.91	2790.00
297.38	2809.00
297.84	2860.00
298.31	2805.00
298.78	2834.00
299.25	2820.00
299.71	2835.00
300.18	2828.00
300.65	2841.00
301.12	2847.00
301.58	2842.00
302.05	2872.00
302.52	2864.00
302.99	2884.00
303.45	2919.00
303.92	2928.00
304.39	2951.00
304.86	2983.00
305.32	3002.00
305.79	3033.00
306.26	3053.00
306.73	3074.00
307.19	3118.00
307.66	3172.00
308.13	3249.00
308.60	3276.00
309.06	3312.00
309.53	3297.00
310.00	3335.00
310.46	3410.00
310.93	3533.00
311.40	3691.00
311.87	3743.00
312.33	3759.00
312.80	3805.00
313.27	3893.00
313.73	3974.00
314.20	4053.00
314.67	4077.00
315.13	4058.00
315.60	4173.00
316.07	4208.00
316.53	4109.00
317.00	4292.00
317.47	4573.00
317.94	4673.00
318.40	4599.00
318.87	4510.00
319.34	4680.00
319.80	4792.00
320.27	4896.00
320.74	5013.00
321.20	5143.00
321.67	5067.00
322.14	4949.00
322.60	5046.00
323.07	5051.00
323.54	4984.00
324.00	5200.00
324.47	5398.00
324.93	5595.00
325.40	5733.00
325.87	5860.00
326.33	6239.00
326.80	6577.00
327.27	6497.00
327.73	6457.00
328.20	6400.00
328.67	6507.00
329.13	6540.00
329.60	6799.00
330.06	7193.00
330.53	7260.00
331.00	7051.00
331.46	6755.00
331.93	6868.00
332.40	6877.00
332.86	6994.00
333.33	6911.00
333.79	6883.00
334.26	6863.00
334.73	6948.00
335.19	7048.00
335.66	7117.00
336.12	7019.00
336.59	6791.00
337.06	6483.00
337.52	6698.00
337.99	6687.00
338.45	7008.00
338.92	7226.00
339.38	7373.00
339.85	7499.00
340.32	7759.00
340.78	7882.00
341.25	7816.00
341.71	7674.00
342.18	7841.00
342.64	7932.00
343.11	7898.00
343.58	7970.00
344.04	7876.00
344.51	7623.00
344.97	7211.00
345.44	7654.00
345.90	8152.00
346.37	8137.00
346.83	8069.00
347.30	8388.00
347.77	8410.00
348.23	8263.00
348.70	8227.00
349.16	8383.00
349.63	8433.00
350.09	8450.00
350.56	8838.00
351.02	9281.00
351.49	9181.00
351.95	8884.00
352.42	8846.00
352.88	8874.00
353.35	8806.00
353.81	9352.00
354.28	9593.00
354.74	9847.00
355.21	9868.00
355.67	9746.00
356.14	9434.00
356.60	9121.00
357.07	8742.00
357.53	8249.00
358.00	8189.00
358.46	8205.00
358.93	7987.00
359.39	8173.00
359.86	9248.00
360.32	9805.00
360.79	9815.00
361.25	9248.00
361.72	8983.00
362.18	9255.00
362.65	9417.00
363.11	9891.00
363.58	10129.00
364.04	9825.00
364.51	10135.00
364.97	10364.00
365.43	10308.00
365.90	10861.00
366.36	11489.00
366.83	11619.00
367.29	11426.00
367.76	11436.00
368.22	11268.00
368.69	11042.00
369.15	11106.00
369.61	11438.00
370.08	11815.00
370.54	11892.00
371.01	11499.00
371.47	11116.00
371.94	11472.00
372.40	11365.00
372.86	10570.00
373.33	10697.00
373.79	10468.00
374.26	9891.00
374.72	10222.00
375.19	10416.00
375.65	10562.00
376.11	11656.00
376.58	11942.00
377.04	11964.00
377.51	12409.00
377.97	13008.00
378.43	13526.00
378.90	13794.00
379.36	13168.00
379.82	12381.00
380.29	12141.00
380.75	12310.00
381.22	12854.00
381.68	12441.00
382.14	11511.00
382.61	10536.00
383.07	10009.00
383.53	9671.00
384.00	9788.00
384.46	10411.00
384.93	11222.00
385.39	12324.00
385.85	12302.00
386.32	12034.00
386.78	11995.00
387.24	12468.00
387.71	12424.00
388.17	12485.00
388.63	12754.00
389.10	12858.00
389.56	13496.00
390.02	14509.00
390.49	15101.00
390.95	15138.00
391.41	15033.00
391.88	15268.00
392.34	14589.00
392.80	13376.00
393.27	12053.00
393.73	10799.00
394.19	10660.00
394.66	12544.00
395.12	14147.00
395.58	15018.00
396.05	15258.00
396.51	14842.00
396.97	13476.00
397.43	12517.00
397.90	13877.00
398.36	16972.00
398.82	19242.00
399.29	20200.00
399.75	21002.00
400.21	21465.00
400.67	21702.00
401.14	22106.00
401.60	22268.00
402.06	22915.00
402.53	22946.00
402.99	23226.00
403.45	22996.00
403.91	22462.00
404.38	22820.00
404.84	22949.00
405.30	22307.00
405.76	22724.00
406.23	22695.00
406.69	22499.00
407.15	22675.00
407.61	22967.00
408.08	23383.00
408.54	23678.00
409.00	24105.00
409.46	24513.00
409.93	24670.00
410.39	23826.00
410.85	23269.00
411.31	24144.00
411.77	25580.00
412.24	26003.00
412.70	26085.00
413.16	25972.00
413.62	25723.00
414.09	25818.00
414.55	26309.00
415.01	26542.00
415.47	26298.00
415.93	26708.00
416.40	26525.00
416.86	26875.00
417.32	27015.00
417.78	26561.00
418.24	26077.00
418.71	26241.00
419.17	26336.00
419.63	26528.00
420.09	27051.00
420.55	26791.00
421.01	27142.00
421.48	27802.00
421.94	27822.00
422.40	27603.00
422.86	27455.00
423.32	26544.00
423.78	26870.00
424.25	27478.00
424.71	27348.00
425.17	27757.00
425.63	27624.00
426.09	27187.00
426.55	27366.00
427.01	27431.00
427.48	27426.00
427.94	26629.00
428.40	26647.00
428.86	26782.00
429.32	25736.00
429.78	24588.00
430.24	24216.00
430.71	23551.00
431.17	23696.00
431.63	24606.00
432.09	27057.00
432.55	29754.00
433.01	29377.00
433.47	28608.00
433.93	29791.00
434.39	29571.00
434.86	28671.00
435.32	30200.00
435.78	31464.00
436.24	31558.00
436.70	32207.00
437.16	32205.00
437.62	31772.00
438.08	31128.00
438.54	30833.00
439.00	30401.00
439.46	30291.00
439.93	31693.00
440.39	32651.00
440.85	32997.00
441.31	33092.00
441.77	34090.00
442.23	34826.00
442.69	35228.00
443.15	35636.00
443.61	35651.00
444.07	35512.00
444.53	35886.00
444.99	35867.00
445.45	36082.00
445.91	36031.00
446.37	35529.00
446.83	35784.00
447.29	36893.00
447.75	37792.00
448.21	38140.00
448.67	38620.00
449.14	38300.00
449.60	39036.00
450.06	39430.00
450.52	39807.00
450.98	40640.00
451.44	40639.00
451.90	40577.00
452.36	39651.00
452.82	39361.00
453.28	38885.00
453.74	38449.00
454.20	38805.00
454.66	39659.00
455.12	40290.00
455.58	40282.00
456.04	40380.00
456.50	40986.00
456.96	41592.00
457.42	41624.00
457.88	41487.00
458.33	41627.00
458.79	41224.00
459.25	40900.00
459.71	41100.00
460.17	41625.00
460.63	41808.00
461.09	42060.00
461.55	42901.00
462.01	43147.00
462.47	43273.00
462.93	43095.00
463.39	43084.00
463.85	43152.00
464.31	42830.00
464.77	42230.00
465.23	42626.00
465.69	42189.00
466.15	42428.00
466.61	42864.00
467.07	42615.00
467.52	42139.00
467.98	42523.00
468.44	43300.00
468.90	43116.00
469.36	43253.00
469.82	43143.00
470.28	43008.00
470.74	43045.00
471.20	43089.00
471.66	43626.00
472.12	44288.00
472.57	44671.00
473.03	45161.00
473.49	44914.00
473.95	44420.00
474.41	44873.00
474.87	45330.00
475.33	45382.00
475.79	45273.00
476.25	44928.00
476.70	45139.00
477.16	45220.00
477.62	45545.00
478.08	46236.00
478.54	46521.00
479.00	46835.00
479.46	46605.00
479.91	46839.00
480.37	47111.00
480.83	47126.00
481.29	47283.00
481.75	47282.00
482.21	47536.00
482.67	47568.00
483.12	47399.00
483.58	46989.00
484.04	46937.00
484.50	46660.00
484.96	45842.00
485.42	44629.00
485.87	42934.00
486.33	42078.00
486.79	40993.00
487.25	41620.00
487.71	43989.00
488.16	44731.00
488.62	45462.00
489.08	46295.00
489.54	46560.00
490.00	46797.00
490.45	47760.00
490.91	47863.00
491.37	47154.00
491.83	46587.00
492.29	46680.00
492.74	46354.00
493.20	46286.00
493.66	47667.00
494.12	48173.00
494.57	48373.00
495.03	48422.00
495.49	49059.00
495.95	48974.00
496.40	48695.00
496.86	48680.00
497.32	49263.00
497.78	48571.00
498.23	48371.00
498.69	48113.00
499.15	47653.00
499.61	47648.00
500.06	47988.00
500.52	47492.00
500.98	46884.00
501.44	46544.00
501.89	46598.00
502.35	46785.00
502.81	47300.00
503.27	47606.00
503.72	47576.00
504.18	48104.00
504.64	47641.00
505.09	47730.00
505.55	49319.00
506.01	49539.00
506.47	49654.00
506.92	49717.00
507.38	49198.00
507.84	48682.00
508.29	48798.00
508.75	49166.00
509.21	49344.00
509.66	49913.00
510.12	50104.00
510.58	49937.00
511.03	49952.00
511.49	50494.00
511.95	50448.00
512.40	50546.00
512.86	50425.00
513.32	49691.00
513.77	49073.00
514.23	49180.00
514.69	49334.00
515.14	49124.00
515.60	49548.00
516.06	48836.00
516.51	47366.00
516.97	46538.00
517.43	45574.00
517.88	44302.00
518.34	45497.00
518.79	47351.00
519.25	47316.00
519.71	48347.00
520.16	49734.00
520.62	50208.00
521.08	50767.00
521.53	50790.00
521.99	50801.00
522.44	50795.00
522.90	50944.00
523.36	50873.00
523.81	51174.00
524.27	52022.00
524.72	52601.00
525.18	53056.00
525.64	52586.00
526.09	51377.00
526.55	50149.00
527.00	49624.00
527.46	48927.00
527.92	49739.00
528.37	51429.00
528.83	53098.00
529.28	53493.00
529.74	53880.00
530.19	53934.00
530.65	54277.00
531.10	54280.00
531.56	54728.00
532.02	54181.00
532.47	52943.00
532.93	52884.00
533.38	52593.00
533.84	52290.00
534.29	53310.00
534.75	53987.00
535.20	54309.00
535.66	54865.00
536.11	55100.00
536.57	54476.00
537.02	54286.00
537.48	53704.00
537.93	53614.00
538.39	54432.00
538.84	54578.00
539.30	54062.00
539.75	53346.00
540.21	52724.00
540.66	52258.00
541.12	52489.00
541.57	52779.00
542.03	53485.00
542.48	54010.00
542.94	54144.00
543.39	53925.00
543.85	54421.00
544.30	54470.00
544.76	54796.00
545.21	54898.00
545.67	54873.00
546.12	54911.00
546.58	55203.00
547.03	55210.00
547.49	54633.00
547.94	54803.00
548.40	54825.00
548.85	54839.00
549.30	55260.00
549.76	55239.00
550.21	55742.00
550.67	55419.00
551.12	55156.00
551.58	55652.00
552.03	55799.00
552.48	55661.00
552.94	55669.00
553.39	55545.00
553.85	55386.00
554.30	56009.00
554.76	56272.00
555.21	56490.00
555.66	56389.00
556.12	56525.00
556.57	55620.00
557.03	55321.00
557.48	55088.00
557.93	55301.00
558.39	54898.00
558.84	54608.00
559.30	54281.00
559.75	53966.00
560.20	54309.00
560.66	55275.00
561.11	55577.00
561.56	55720.00
562.02	55959.00
562.47	55498.00
562.92	55558.00
563.38	56032.00
563.83	55866.00
564.29	56187.00
564.74	55979.00
565.19	55771.00
565.65	55322.00
566.10	55078.00
566.55	55064.00
567.01	55361.00
567.46	55957.00
567.91	55920.00
568.37	55622.00
568.82	55454.00
569.27	54905.00
569.73	55158.00
570.18	55097.00
570.63	54828.00
571.08	54503.00
571.54	54553.00
571.99	54924.00
572.44	55686.00
572.90	56402.00
573.35	56753.00
573.80	56623.00
574.26	56662.00
574.71	56346.00
575.16	56073.00
575.61	55913.00
576.07	55868.00
576.52	55666.00
576.97	56398.00
577.42	55901.00
577.88	55986.00
578.33	55869.00
578.78	55419.00
579.24	55729.00
579.69	55933.00
580.14	56594.00
580.59	56671.00
581.05	56923.00
581.50	57372.00
581.95	57165.00
582.40	57762.00
582.85	58229.00
583.31	58143.00
583.76	58256.00
584.21	58119.00
584.66	58132.00
585.12	57779.00
585.57	57320.00
586.02	56845.00
586.47	56840.00
586.92	56802.00
587.38	57022.00
587.83	57197.00
588.28	56483.00
588.73	55048.00
589.18	52822.00
589.64	51639.00
590.09	51717.00
590.54	52925.00
590.99	54580.00
591.44	55190.00
591.90	55368.00
592.35	55428.00
592.80	55546.00
593.25	55937.00
593.70	56044.00
594.15	55880.00
594.61	55487.00
595.06	55229.00
595.51	55354.00
595.96	55477.00
596.41	56142.00
596.86	56537.00
597.31	56683.00
597.77	56171.00
598.22	56048.00
598.67	55693.00
599.12	55807.00
599.57	56171.00
600.02	56501.00
600.47	56270.00
600.92	55890.00
601.38	55841.00
601.83	55745.00
602.28	55523.00
602.73	56014.00
603.18	56224.00
603.63	56848.00
604.08	57497.00
604.53	57552.00
604.98	57771.00
605.43	57564.00
605.89	57317.00
606.34	57683.00
606.79	57116.00
607.24	57414.00
607.69	57559.00
608.14	57617.00
608.59	57398.00
609.04	57349.00
609.49	57270.00
609.94	57077.00
610.39	56817.00
610.84	56762.00
611.29	57030.00
611.74	57282.00
612.19	57101.00
612.64	56836.00
613.10	56893.00
613.55	56646.00
614.00	56148.00
614.45	56282.00
614.90	56600.00
615.35	56771.00
615.80	56900.00
616.25	55669.00
616.70	55107.00
617.15	54892.00
617.60	55376.00
618.05	56108.00
618.50	56848.00
618.95	57280.00
619.40	57008.00
619.85	57142.00
620.30	57078.00
620.75	57604.00
621.20	57888.00
621.65	57278.00
622.10	56769.00
622.55	56702.00
623.00	56636.00
623.45	56125.00
623.89	56221.00
624.34	56019.00
624.79	55911.00
625.24	55514.00
625.69	55084.00
626.14	55366.00
626.59	55548.00
627.04	56260.00
627.49	56278.00
627.94	55300.00
628.39	54836.00
628.84	55024.00
629.29	55419.00
629.74	55526.00
630.19	55263.00
630.64	55208.00
631.09	55926.00
631.53	55771.00
631.98	55668.00
632.43	55520.00
632.88	56133.00
633.33	56541.00
633.78	56399.00
634.23	56166.00
634.68	56385.00
635.13	56586.00
635.58	56965.00
636.02	56889.00
636.47	56807.00
636.92	57118.00
637.37	57158.00
637.82	57916.00
638.27	58102.00
638.72	58120.00
639.16	58056.00
639.61	57880.00
640.06	57499.00
640.51	57066.00
640.96	57093.00
641.41	56848.00
641.86	56991.00
642.30	56857.00
642.75	57558.00
643.20	57480.00
643.65	57709.00
644.10	57506.00
644.55	57704.00
644.99	57312.00
645.44	57517.00
645.89	57064.00
646.34	56572.00
646.79	56132.00
647.23	55975.00
647.68	55577.00
648.13	55657.00
648.58	55571.00
649.03	55686.00
649.47	55130.00
649.92	54389.00
650.37	54687.00
650.82	55602.00
651.27	56692.00
651.71	56462.00
652.16	55582.00
652.61	55773.00
653.06	56395.00
653.50	56477.00
653.95	56701.00
654.40	56341.00
654.85	55781.00
655.29	55102.00
655.74	53764.00
656.19	51297.00
656.64	48009.00
657.08	48239.00
657.53	50260.00
657.98	53345.00
658.43	55148.00
658.87	55773.00
659.32	55850.00
659.77	55725.00
660.21	56024.00
660.66	56468.00
661.11	56695.00
661.56	57147.00
662.00	57262.00
662.45	57222.00
662.90	57411.00
663.34	56871.00
663.79	56576.00
664.24	56520.00
664.68	56556.00
665.13	56709.00
665.58	56969.00
666.02	57084.00
666.47	56781.00
666.92	56363.00
667.36	56102.00
667.81	56445.00
668.26	56497.00
668.70	56915.00
669.15	57181.00
669.60	56989.00
670.04	56833.00
670.49	56335.00
670.94	56541.00
671.38	56350.00
671.83	56137.00
672.28	55675.00
672.72	56029.00
673.17	56102.00
673.61	56364.00
674.06	56336.00
674.51	56146.00
674.95	55706.00
675.40	55965.00
675.85	55977.00
676.29	56088.00
676.74	56193.00
677.18	55922.00
677.63	55831.00
678.07	55844.00
678.52	55793.00
678.97	55652.00
679.41	55720.00
679.86	55643.00
680.30	55790.00
680.75	55773.00
681.20	55730.00
681.64	55224.00
682.09	55184.00
682.53	55319.00
682.98	55545.00
683.42	55266.00
683.87	55038.00
684.31	54544.00
684.76	54161.00
685.20	54229.00
685.65	54140.00
686.10	54126.00
686.54	53000.00
686.99	49322.00
687.43	43465.00
687.88	40984.00
688.32	42661.00
688.77	46168.00
689.21	47100.00
689.66	46714.00
690.10	46741.00
690.55	47244.00
690.99	48046.00
691.44	49085.00
691.88	49672.00
692.33	50436.00
692.77	50712.00
693.22	50240.00
693.66	50196.00
694.11	49721.00
694.55	49076.00
695.00	49220.00
695.44	49265.00
695.88	49826.00
696.33	50187.00
696.77	50988.00
697.22	52202.00
697.66	52623.00
698.11	51867.00
698.55	51274.00
699.00	50955.00
699.44	50583.00
699.88	50415.00
700.33	50250.00
700.77	49904.00
701.22	49528.00
701.66	49877.00
702.11	49564.00
702.55	49415.00
702.99	49001.00
703.44	50087.00
703.88	50576.00
704.33	50501.00
704.77	51152.00
705.21	51521.00
705.66	51204.00
706.10	51206.00
706.54	50933.00
706.99	51063.00
707.43	50898.00
707.88	51222.00
708.32	51305.00
708.76	51438.00
709.21	51192.00
709.65	50969.00
710.09	51293.00
710.54	51392.00
710.98	51588.00
711.42	51056.00
711.87	50919.00
712.31	50944.00
712.76	50670.00
713.20	50567.00
713.64	50574.00
714.08	50799.00
714.53	50733.00
714.97	50080.00
715.41	49337.00
715.86	49142.00
716.30	48754.00
716.74	47563.00
717.19	44502.00
717.63	41920.00
718.07	40065.00
718.52	39770.00
718.96	37954.00
719.40	37583.00
719.84	37114.00
720.29	37514.00
720.73	37442.00
721.17	38862.00
721.62	41582.00
722.06	44538.00
722.50	45700.00
722.94	44947.00
723.39	44064.00
723.83	40858.00
724.27	39821.00
724.71	39473.00
725.16	39695.00
725.60	39324.00
726.04	39976.00
726.48	40550.00
726.93	40319.00
727.37	41352.00
727.81	40799.00
728.25	39573.00
728.69	40996.00
729.14	41274.00
729.58	39576.00
730.02	40171.00
730.46	41362.00
730.90	40991.00
731.35	41271.00
731.79	41612.00
732.23	42424.00
732.67	43784.00
733.11	44831.00
733.56	44983.00
734.00	45177.00
734.44	46306.00
734.88	46373.00
735.32	45987.00
735.76	45660.00
736.21	45721.00
736.65	45561.00
737.09	45700.00
737.53	45816.00
737.97	46124.00
738.41	46165.00
738.85	45739.00
739.30	44980.00
739.74	44984.00
740.18	45685.00
740.62	46172.00
741.06	46227.00
741.50	45605.00
741.94	45540.00
742.38	46058.00
742.83	46060.00
743.27	46312.00
743.71	46604.00
744.15	46589.00
744.59	46485.00
745.03	46092.00
745.47	46597.00
745.91	46879.00
746.35	47241.00
746.79	47236.00
747.23	47306.00
747.68	47238.00
748.12	47152.00
748.56	47339.00
749.00	47072.00
749.44	46994.00
749.88	46471.00
750.32	46449.00
750.76	47271.00
751.20	46845.00
751.64	46586.00
752.08	46968.00
752.52	47117.00
752.96	47093.00
753.40	46740.00
753.84	46664.00
754.28	46935.00
754.72	47112.00
755.16	46914.00
755.60	47132.00
756.04	47030.00
756.48	46731.00
756.92	47180.00
757.36	46540.00
757.80	46647.00
758.24	46385.00
758.68	45847.00
759.12	44676.00
759.56	41848.00
760.00	31686.00
760.44	20062.00
760.88	13128.00
761.32	11980.00
761.76	15862.00
762.20	23425.00
762.64	27005.00
763.08	23777.00
763.52	21340.00
763.96	21359.00
764.40	23158.00
764.84	25260.00
765.28	27979.00
765.72	30509.00
766.15	32760.00
766.59	34756.00
767.03	37202.00
767.47	39663.00
767.91	41299.00
768.35	42322.00
768.79	42869.00
769.23	43500.00
769.67	43452.00
770.11	43590.00
770.55	44068.00
770.98	44691.00
771.42	45031.00
771.86	44433.00
772.30	44640.00
772.74	45125.00
773.18	44953.00
773.62	45035.00
774.06	44960.00
774.49	44428.00
774.93	43932.00
775.37	43470.00
775.81	43919.00
776.25	44106.00
776.69	44524.00
777.13	44715.00
777.56	44625.00
778.00	44138.00
778.44	44242.00
778.88	44232.00
779.32	44071.00
779.76	43915.00
780.19	43586.00
780.63	43149.00
781.07	43238.00
781.51	43317.00
781.95	43466.00
782.38	43693.00
782.82	43871.00
783.26	43678.00
783.70	43293.00
784.14	42763.00
784.57	43118.00
785.01	42997.00
785.45	42498.00
785.89	42240.00
786.32	42164.00
786.76	41837.00
787.20	41551.00
787.64	41498.00
788.07	41336.00
788.51	41523.00
788.95	41360.00
789.39	41557.00
789.82	40582.00
790.26	40435.00
790.70	40602.00
791.14	40276.00
791.57	39611.00
792.01	39475.00
792.45	39150.00
792.88	39076.00
793.32	38780.00
793.76	39222.00
794.20	39283.00
794.63	39556.00
795.07	39388.00
795.51	39760.00
795.94	39926.00
796.38	38867.00
796.82	38153.00
797.25	38559.00
797.69	38715.00
798.13	38736.00
798.56	38812.00
799.00	38652.00
799.44	38675.00
799.87	38666.00
800.31	38220.00
800.75	38035.00
801.18	38110.00
801.62	38287.00
802.06	38196.00
802.49	38137.00
802.93	37375.00
803.37	36916.00
803.80	36931.00
804.24	37264.00
804.67	37102.00
805.11	36728.00
805.55	37160.00
805.98	37601.00
806.42	38018.00
806.85	37899.00
807.29	37794.00
807.73	37411.00
808.16	37349.00
808.60	36967.00
809.03	36309.00
809.47	36232.00
809.91	35677.00
810.34	35395.00
810.78	35558.00
811.21	35295.00
811.65	34905.00
812.08	34746.00
812.52	34523.00
812.96	34349.00
813.39	33292.00
813.83	31624.00
814.26	31323.00
814.70	30841.00
815.13	29524.00
815.57	28595.00
816.00	28872.00
816.44	27773.00
816.87	26887.00
817.31	27485.00
817.74	28911.00
818.18	27593.00
818.61	27884.00
819.05	28968.00
819.48	28946.00
819.92	28736.00
820.35	28704.00
820.79	31067.00
821.22	32236.00
821.66	31385.00
822.09	30763.00
822.53	29318.00
822.96	26000.00
823.40	23009.00
823.83	25570.00
824.27	29073.00
824.70	30348.00
825.13	31740.00
825.57	32368.00
826.00	30984.00
826.44	30940.00
826.87	31758.00
827.31	31758.00
827.74	29479.00
828.17	28369.00
828.61	28726.00
829.04	29040.00
829.48	28714.00
829.91	29132.00
830.35	29826.00
830.78	29369.00
831.21	30153.00
831.65	30411.00
832.08	29932.00
832.52	29646.00
832.95	30554.00
833.38	30300.00
833.82	30038.00
834.25	29920.00
834.68	30681.00
835.12	31048.00
835.55	31096.00
835.98	30965.00
836.42	30997.00
836.85	31214.00
837.29	31605.00
837.72	31616.00
838.15	32103.00
838.59	32199.00
839.02	32365.00
839.45	32481.00
839.89	32768.00
840.32	32832.00
840.75	32450.00
841.18	32172.00
841.62	31914.00
842.05	31781.00
842.48	31817.00
842.92	31775.00
843.35	31765.00
843.78	31618.00
844.22	31535.00
844.65	31789.00
845.08	32112.00
845.51	32574.00
845.95	33248.00
846.38	32961.00
846.81	32840.00
847.24	32322.00
847.68	32098.00
848.11	32044.00
848.54	31606.00
848.97	31623.00
849.41	31252.00
849.84	29775.00
850.27	28479.00
850.70	29862.00
851.14	31145.00
851.57	31085.00
852.00	31356.00
852.43	31699.00
852.87	31866.00
853.30	31812.00
853.73	30710.00
854.16	27968.00
854.59	25334.00
855.03	27457.00
855.46	29498.00
855.89	30113.00
856.32	30544.00
856.75	30902.00
857.18	31100.00
857.62	31253.00
858.05	31120.00
858.48	31241.00
858.91	31447.00
859.34	31572.00
859.77	31516.00
860.21	31530.00
860.64	31663.00
861.07	31667.00
861.50	31325.00
861.93	31062.00
862.36	31122.00
862.79	30765.00
863.23	30659.00
863.66	30777.00
864.09	30725.00
864.52	30975.00
864.95	30450.00
865.38	30392.00
865.81	29484.00
866.24	27201.00
866.67	26344.00
867.10	28586.00
867.54	29992.00
867.97	30734.00
868.40	30642.00
868.83	30300.00
869.26	29987.00
869.69	30139.00
870.12	30163.00
870.55	30100.00
870.98	29839.00
871.41	29496.00
871.84	29788.00
872.27	29977.00
872.70	30135.00
873.13	29898.00
873.56	29659.00
873.99	29390.00
874.42	29630.00
874.85	29720.00
875.28	29665.00
875.71	29744.00
876.14	29865.00
876.57	29769.00
877.00	29430.00
877.43	29094.00
877.86	28695.00
878.29	29157.00
878.72	28862.00
879.15	28457.00
879.58	28462.00
880.01	28770.00
880.44	28599.00
880.87	27846.00
881.30	28451.00
881.73	29215.00
882.16	29259.00
882.59	29103.00
883.02	29510.00
883.45	29539.00
883.88	29652.00
884.31	29409.00
884.74	29199.00
885.17	28979.00
885.60	28798.00
886.03	28348.00
886.46	27844.00
886.88	27768.00
887.31	28073.00
887.74	28435.00
888.17	28403.00
888.60	28596.00
889.03	28918.00
889.46	28565.00
889.89	28345.00
890.32	28700.00
890.75	28508.00
891.17	28658.00
891.60	28614.00
892.03	27981.00
892.46	27933.00
892.89	26957.00
893.32	26508.00
893.75	26901.00
894.17	26205.00
894.60	25194.00
895.03	24535.00
895.46	23787.00
895.89	23870.00
896.32	22596.00
896.74	22156.00
897.17	21778.00
897.60	21970.00
898.03	22818.00
898.46	22163.00
898.89	18773.00
899.31	19478.00
899.74	22271.00
900.17	21040.00
900.60	20285.00
901.02	20443.00
901.45	20523.00
901.88	20571.00
902.31	20508.00
902.74	21146.00
903.16	22596.00
903.59	24155.00
904.02	24353.00
904.45	24225.00
904.87	24410.00
905.30	23848.00
905.73	23801.00
906.16	22120.00
906.58	21753.00
907.01	20498.00
907.44	20444.00
907.87	20138.00
908.29	20250.00
908.72	19805.00
909.15	19982.00
909.57	19934.00
910.00	19627.00
910.43	19713.00
910.86	20062.00
911.28	21195.00
911.71	19958.00
912.14	20744.00
912.56	20588.00
912.99	18419.00
913.42	17450.00
913.84	19020.00
914.27	20340.00
914.70	20444.00
915.12	18207.00
915.55	17738.00
915.98	19659.00
916.40	20957.00
916.83	20412.00
917.26	18251.00
917.68	18553.00
918.11	19628.00
918.53	20205.00
918.96	20915.00
919.39	20476.00
919.81	21277.00
920.24	21917.00
920.66	21195.00
921.09	20564.00
921.52	20031.00
921.94	20725.00
922.37	20923.00
922.79	20369.00
923.22	20035.00
923.65	19531.00
924.07	19419.00
924.50	19412.00
924.92	19727.00
925.35	19860.00
925.77	19269.00
926.20	19585.00
926.63	19848.00
927.05	18782.00
927.48	17133.00
927.90	15824.00
928.33	15167.00
928.75	14937.00
929.18	14154.00
929.60	13015.00
930.03	12501.00
930.45	12182.00
930.88	11389.00
931.30	10304.00
931.73	9230.00
932.15	8485.00
932.58	8607.00
933.00	8167.00
933.43	7090.00
933.85	6632.00
934.28	6758.00
934.70	8429.00
935.13	7788.00
935.55	6932.00
935.98	7650.00
936.40	7158.00
936.83	6476.00
937.25	6895.00
937.68	6575.00
938.10	7269.00
938.52	8471.00
938.95	9731.00
939.37	9849.00
939.80	8690.00
940.22	8440.00
940.65	7899.00
941.07	8006.00
941.49	8118.00
941.92	8189.00
942.34	7183.00
942.77	6996.00
943.19	7870.00
943.61	6577.00
944.04	6328.00
944.46	7421.00
944.89	7618.00
945.31	6865.00
945.73	6602.00
946.16	7184.00
946.58	7355.00
947.00	7734.00
947.43	7658.00
947.85	7307.00
948.27	8209.00
948.70	8714.00
949.12	7503.00
949.54	6700.00
949.97	7779.00
950.39	9314.00
950.81	9575.00
951.24	8290.00
951.66	7326.00
952.08	7548.00
952.51	8236.00
952.93	9264.00
953.35	9325.00
953.78	8927.00
954.20	8568.00
954.62	8995.00
955.04	8526.00
955.47	9074.00
955.89	8991.00
956.31	8858.00
956.74	10160.00
957.16	10989.00
957.58	10128.00
958.00	10184.00
958.43	9108.00
958.85	8870.00
959.27	9701.00
959.69	10594.00
960.12	10550.00
960.54	11137.00
960.96	11632.00
961.38	11081.00
961.80	10476.00
962.23	11067.00
962.65	12359.00
963.07	11594.00
963.49	11538.00
963.91	11602.00
964.34	11948.00
964.76	12323.00
965.18	12440.00
965.60	11744.00
966.02	11989.00
966.45	12766.00
966.87	14187.00
967.29	14181.00
967.71	14169.00
968.13	14627.00
968.55	14797.00
968.98	14956.00
969.40	14607.00
969.82	15099.00
970.24	15322.00
970.66	15169.00
971.08	15055.00
971.50	14811.00
971.92	14505.00
972.35	14314.00
972.77	13774.00
973.19	13435.00
973.61	13672.00
974.03	13912.00
974.45	13927.00
974.87	13462.00
975.29	13468.00
975.71	13312.00
976.13	14104.00
976.56	14460.00
976.98	14278.00
977.40	13892.00
977.82	14013.00
978.24	14088.00
978.66	14025.00
979.08	14249.00
979.50	14307.00
979.92	14844.00
980.34	14966.00
980.76	15072.00
981.18	15076.00
981.60	14734.00
982.02	14693.00
982.44	14950.00
982.86	15203.00
983.28	15209.00
983.70	15042.00
984.12	14676.00
984.54	14949.00
984.96	15110.00
985.38	15006.00
985.80	14818.00
986.22	14723.00
986.64	14562.00
987.06	14678.00
987.48	15020.00
987.90	15003.00
988.32	14898.00
988.74	14955.00
989.16	14943.00
989.58	14849.00
990.00	14865.00
990.42	14709.00
990.84	14709.00
991.26	14736.00
991.67	14601.00
992.09	14483.00
992.51	14599.00
992.93	14690.00
993.35	14575.00
993.77	14640.00
994.19	14512.00
994.61	14379.00
995.03	14378.00
995.45	14275.00
995.87	14480.00
996.28	14385.00
996.70	14433.00
997.12	14452.00
997.54	14458.00
997.96	14524.00
998.38	14729.00
998.80	14703.00
999.21	14602.00
999.63	14673.00
1000.05	14746.00
1000.47	14656.00
1000.89	14575.00
1001.31	14553.00
1001.72	14465.00
1002.14	14490.00
1002.56	14410.00
1002.98	14272.00
1003.40	14376.00
1003.82	14027.00
1004.23	13920.00
1004.65	14093.00
1005.07	14195.00
1005.49	14042.00
1005.90	14037.00
1006.32	13936.00
1006.74	13923.00
1007.16	13806.00
1007.58	13742.00
1007.99	13635.00
1008.41	13754.00
1008.83	13816.00
1009.25	13810.00
1009.66	13838.00
1010.08	13735.00
1010.50	13630.00
1010.92	13620.00
1011.33	13517.00
1011.75	13439.00
1012.17	13344.00
1012.58	13305.00
1013.00	13273.00
1013.42	12979.00
1013.84	12956.00
1014.25	12919.00
1014.67	12856.00
1015.09	12852.00
1015.50	12697.00
1015.92	12568.00
1016.34	12503.00
1016.75	12423.00
1017.17	12352.00
1017.59	12221.00
1018.00	12034.00
1018.42	11963.00
1018.84	11921.00
1019.25	11795.00
1019.67	11830.00
1020.09	11579.00
1020.50	11676.00
1020.92	11607.00
1021.33	11573.00
1021.75	11615.00
1022.17	11422.00
1022.58	11426.00
1023.00	11323.00
1023.42	11264.00
1023.83	11290.00
1024.25	11097.00
1024.66	11014.00
1025.08	10973.00
1025.50	10882.00
1025.91	10718.00
1026.33	10572.00
1026.74	10648.00
1027.16	10689.00
1027.57	10466.00
1027.99	10443.00
1028.40	10347.00
1028.82	10388.00
1029.24	10090.00
1029.65	10027.00
1030.07	9969.00
1030.48	9843.00
1030.90	9895.00
1031.31	9673.00
1031.73	9678.00
1032.14	9591.00
1032.56	9592.00
1032.97	9423.00
1033.39	9472.00
1033.80	9390.00
1034.22	9366.00
1034.63	9376.00
1035.05	9290.00
1035.46	9120.00
1035.88	9091.00
1036.29	9079.00
1036.71	8897.00
1037.12	8895.00
1037.54	8904.00
1037.95	8741.00
1038.36	8740.00
1038.78	8693.00
1039.19	8545.00
1039.61	8525.00
1040.02	8486.00
1040.44	8434.00
1040.85	8416.00
1041.27	8236.00
1041.68	8220.00
1042.09	8154.00
1042.51	8026.00
1042.92	7976.00
1043.34	7922.00
1043.75	7803.00
1044.16	7784.00
1044.58	7663.00
1044.99	7621.00
1045.40	7561.00
1045.82	7511.00
1046.23	7541.00
1046.65	7488.00
1047.06	7407.00
1047.47	7324.00
1047.89	7313.00
1048.30	7245.00
1048.71	7183.00
1049.13	7156.00
1049.54	7025.00
1049.95	6973.00
1050.37	7012.00
1050.78	6881.00
1051.19	6851.00
1051.61	6814.00
1052.02	6732.00
1052.43	6701.00
1052.85	6678.00
1053.26	6627.00
1053.67	6572.00
1054.08	6513.00
1054.50	6483.00
1054.91	6477.00
1055.32	6347.00
1055.74	6260.00
1056.15	6238.00
1056.56	6099.00
1056.97	6096.00
1057.39	6060.00
1057.80	6008.00
1058.21	5951.00
1058.62	5884.00
1059.03	5858.00
1059.45	5864.00
1059.86	5778.00
1060.27	5794.00
1060.68	5685.00
1061.10	5707.00
1061.51	5655.00
1061.92	5591.00
1062.33	5563.00
1062.74	5463.00
1063.16	5440.00
1063.57	5439.00
1063.98	5334.00
1064.39	5380.00
1064.80	5325.00
1065.21	5213.00
1065.63	5217.00
1066.04	5245.00
1066.45	5148.00
1066.86	5148.00
1067.27	5074.00
1067.68	5015.00
1068.10	4991.00
1068.51	4977.00
1068.92	4908.00
1069.33	4904.00
1069.74	4922.00
1070.15	4837.00
1070.56	4780.00
1070.97	4723.00
1071.38	4734.00
1071.80	4776.00
1072.21	4639.00
1072.62	4683.00
1073.03	4572.00
1073.44	4620.00
1073.85	4594.00
1074.26	4589.00
1074.67	4580.00
1075.08	4469.00
1075.49	4532.00
1075.90	4376.00
1076.31	4389.00
1076.72	4352.00
1077.13	4363.00
1077.54	4315.00
1077.95	4316.00
1078.36	4267.00
1078.77	4283.00
1079.19	4277.00
1079.60	4220.00
1080.01	4205.00
1080.42	4144.00
1080.83	4120.00
1081.24	4086.00
1081.65	4045.00
1082.05	4055.00
1082.46	4018.00
1082.87	4031.00
1083.28	4001.00
1083.69	3971.00
1084.10	3927.00
1084.51	3905.00
1084.92	3880.00
1085.33	3897.00
1085.74	3803.00
1086.15	4184.00
1086.56	3810.00
1086.97	3756.00
1087.38	3789.00
1087.79	3775.00
1088.20	3746.00
1088.61	3716.00
1089.02	3675.00
1089.42	3706.00
1089.83	3701.00
1090.24	3623.00
1090.65	3581.00
1091.06	3589.00
1091.47	3592.00
1091.88	3607.00
1092.29	3520.00
1092.70	3528.00
1093.10	3528.00
1093.51	3460.00
1093.92	3442.00
1094.33	3396.00
1094.74	3382.00
1095.15	3361.00
1095.55	3331.00
1095.96	3362.00
1096.37	3269.00
1096.78	3285.00
1097.19	3254.00
1097.60	3223.00
1098.00	3211.00
1098.41	3171.00
1098.82	3184.00
1099.23	3166.00
1099.64	3128.00
1100.04	3136.00
1100.45	3103.00
1100.86	3123.00
1101.27	3080.00
1101.67	3095.00
1102.08	3080.00
1102.49	3064.00
1102.90	3024.00
1103.31	3017.00
1103.71	3002.00
1104.12	2995.00
1104.53	2970.00
1104.93	2958.00
1105.34	2962.00
1105.75	2943.00
1106.16	2927.00
1106.56	2912.00
1106.97	2901.00
1107.38	2909.00
1107.78	2869.00
1108.19	2876.00
1108.60	2860.00
1109.01	2861.00
1109.41	2855.00
1109.82	2831.00
1110.23	2816.00
1110.63	2824.00
1111.04	2815.00
1111.45	2803.00
1111.85	2808.00
1112.26	2790.00
1112.67	2793.00
1113.07	2794.00
1113.48	2764.00
1113.88	2764.00
1114.29	2755.00
1114.70	2574.00
1115.10	2579.00
1115.51	2579.00
1115.92	2581.00
>>>>>End Processed Spectral Data<<<<<
