SpectraSuite Data File
++++++++++++++++++++++++++++++++++++
Date: Tue Jul 14 12:23:02 EEST 2020
User: CanSEE
Dark Spectrum Present: No
Reference Spectrum Present: No
Number of Sampled Component Spectra: 1
Spectrometers: MAYP112785
Integration Time (usec): 100000 (MAYP112785)
Spectra Averaged: 1 (MAYP112785)
Boxcar Smoothing: 0 (MAYP112785)
Correct for Electrical Dark: No (MAYP112785)
Strobe/Lamp Enabled: No (MAYP112785)
Correct for Detector Non-linearity: No (MAYP112785)
Correct for Stray Light: No (MAYP112785)
Number of Pixels in Processed Spectrum: 2068
>>>>>Begin Processed Spectral Data<<<<<
198.73	3496.00
199.20	2488.00
199.67	2596.00
200.14	2573.00
200.61	2698.00
201.08	2709.00
201.56	2701.00
202.03	2734.00
202.50	2715.00
202.97	2737.00
203.44	2721.00
203.91	2730.00
204.39	2720.00
204.86	2731.00
205.33	2711.00
205.80	2708.00
206.27	2717.00
206.74	2732.00
207.21	2721.00
207.69	2704.00
208.16	2708.00
208.63	2712.00
209.10	2712.00
209.57	2731.00
210.04	2730.00
210.51	2723.00
210.98	2705.00
211.46	2718.00
211.93	2739.00
212.40	2728.00
212.87	2704.00
213.34	2707.00
213.81	2712.00
214.28	2712.00
214.75	2722.00
215.23	2708.00
215.70	2709.00
216.17	2734.00
216.64	2703.00
217.11	2701.00
217.58	2708.00
218.05	2731.00
218.52	2711.00
218.99	2739.00
219.46	2719.00
219.94	2715.00
220.41	2718.00
220.88	2705.00
221.35	2730.00
221.82	2724.00
222.29	2728.00
222.76	2717.00
223.23	2716.00
223.70	2719.00
224.17	2729.00
224.64	2734.00
225.11	2713.00
225.58	2716.00
226.06	2715.00
226.53	2722.00
227.00	2720.00
227.47	2731.00
227.94	2708.00
228.41	2712.00
228.88	2728.00
229.35	2751.00
229.82	2720.00
230.29	2713.00
230.76	2732.00
231.23	2714.00
231.70	2720.00
232.17	2708.00
232.64	2714.00
233.11	2741.00
233.58	2714.00
234.05	2724.00
234.52	2720.00
235.00	2738.00
235.47	2726.00
235.94	2700.00
236.41	2703.00
236.88	2722.00
237.35	2712.00
237.82	2716.00
238.29	2710.00
238.76	2718.00
239.23	2737.00
239.70	3444.00
240.17	2695.00
240.64	2717.00
241.11	2729.00
241.58	2736.00
242.05	2726.00
242.52	2716.00
242.99	2726.00
243.46	2710.00
243.93	2711.00
244.40	2710.00
244.87	2723.00
245.34	2715.00
245.81	2867.00
246.28	2719.00
246.75	2706.00
247.22	2720.00
247.69	2721.00
248.16	2732.00
248.63	2745.00
249.10	2704.00
249.57	2730.00
250.04	2726.00
250.51	2741.00
250.98	2728.00
251.44	2724.00
251.91	2716.00
252.38	2724.00
252.85	2713.00
253.32	2717.00
253.79	2706.00
254.26	2716.00
254.73	2739.00
255.20	2737.00
255.67	2715.00
256.14	2734.00
256.61	2705.00
257.08	2729.00
257.55	2733.00
258.02	2719.00
258.49	2717.00
258.96	2736.00
259.43	2724.00
259.90	2724.00
260.36	2734.00
260.83	2716.00
261.30	2760.00
261.77	2731.00
262.24	2719.00
262.71	2721.00
263.18	2710.00
263.65	2717.00
264.12	2743.00
264.59	2702.00
265.06	2769.00
265.53	2711.00
265.99	2733.00
266.46	2713.00
266.93	2701.00
267.40	2731.00
267.87	2735.00
268.34	2725.00
268.81	2724.00
269.28	2718.00
269.75	2720.00
270.22	2727.00
270.68	2721.00
271.15	2737.00
271.62	2719.00
272.09	2721.00
272.56	2711.00
273.03	2714.00
273.50	2708.00
273.97	2717.00
274.43	2714.00
274.90	2740.00
275.37	2717.00
275.84	2719.00
276.31	2711.00
276.78	2720.00
277.25	2723.00
277.71	2703.00
278.18	2708.00
278.65	2717.00
279.12	2720.00
279.59	2713.00
280.06	2717.00
280.53	2757.00
280.99	2722.00
281.46	2743.00
281.93	2717.00
282.40	2711.00
282.87	2719.00
283.34	2720.00
283.80	2708.00
284.27	2726.00
284.74	2730.00
285.21	2712.00
285.68	2736.00
286.15	2730.00
286.61	2698.00
287.08	2709.00
287.55	2720.00
288.02	2720.00
288.49	2714.00
288.95	2730.00
289.42	2712.00
289.89	2733.00
290.36	2722.00
290.83	2710.00
291.29	2724.00
291.76	2717.00
292.23	2712.00
292.70	2720.00
293.17	2722.00
293.63	2717.00
294.10	2706.00
294.57	2725.00
295.04	2705.00
295.51	2714.00
295.97	2717.00
296.44	2728.00
296.91	2703.00
297.38	2724.00
297.84	2762.00
298.31	2708.00
298.78	2728.00
299.25	2721.00
299.71	2717.00
300.18	2720.00
300.65	2732.00
301.12	2713.00
301.58	2712.00
302.05	2741.00
302.52	2737.00
302.99	2711.00
303.45	2705.00
303.92	2732.00
304.39	2732.00
304.86	2715.00
305.32	2722.00
305.79	2717.00
306.26	2733.00
306.73	2721.00
307.19	2732.00
307.66	2711.00
308.13	2735.00
308.60	2720.00
309.06	2708.00
309.53	2724.00
310.00	2717.00
310.46	2705.00
310.93	2720.00
311.40	2728.00
311.87	2721.00
312.33	2729.00
312.80	2709.00
313.27	2710.00
313.73	2734.00
314.20	2748.00
314.67	2717.00
315.13	2722.00
315.60	2714.00
316.07	2723.00
316.53	2720.00
317.00	2743.00
317.47	2737.00
317.94	2728.00
318.40	2726.00
318.87	2720.00
319.34	2720.00
319.80	2716.00
320.27	2720.00
320.74	2725.00
321.20	2715.00
321.67	2719.00
322.14	2697.00
322.60	2711.00
323.07	2719.00
323.54	2713.00
324.00	2722.00
324.47	2716.00
324.93	2719.00
325.40	2740.00
325.87	2714.00
326.33	2717.00
326.80	2742.00
327.27	2724.00
327.73	2702.00
328.20	2710.00
328.67	2730.00
329.13	2726.00
329.60	2729.00
330.06	2727.00
330.53	2736.00
331.00	2732.00
331.46	2704.00
331.93	2715.00
332.40	2704.00
332.86	2725.00
333.33	2723.00
333.79	2700.00
334.26	2721.00
334.73	2710.00
335.19	2719.00
335.66	2742.00
336.12	2723.00
336.59	2728.00
337.06	2723.00
337.52	2716.00
337.99	2726.00
338.45	2710.00
338.92	2721.00
339.38	2716.00
339.85	2710.00
340.32	2716.00
340.78	2719.00
341.25	2732.00
341.71	2727.00
342.18	2736.00
342.64	2735.00
343.11	2742.00
343.58	2709.00
344.04	2719.00
344.51	2732.00
344.97	2714.00
345.44	2715.00
345.90	2719.00
346.37	2727.00
346.83	2714.00
347.30	2730.00
347.77	2725.00
348.23	2726.00
348.70	2714.00
349.16	2733.00
349.63	2728.00
350.09	2732.00
350.56	2711.00
351.02	2729.00
351.49	2719.00
351.95	2734.00
352.42	2729.00
352.88	2721.00
353.35	2741.00
353.81	2721.00
354.28	2708.00
354.74	2722.00
355.21	2715.00
355.67	2711.00
356.14	2748.00
356.60	2720.00
357.07	2740.00
357.53	2718.00
358.00	2724.00
358.46	2718.00
358.93	2753.00
359.39	2709.00
359.86	2749.00
360.32	2714.00
360.79	2720.00
361.25	2713.00
361.72	2728.00
362.18	2704.00
362.65	2714.00
363.11	2712.00
363.58	2770.00
364.04	2739.00
364.51	2720.00
364.97	2718.00
365.43	2723.00
365.90	2709.00
366.36	2720.00
366.83	2716.00
367.29	2717.00
367.76	2724.00
368.22	2698.00
368.69	2714.00
369.15	2706.00
369.61	2710.00
370.08	2711.00
370.54	2718.00
371.01	2721.00
371.47	2733.00
371.94	2718.00
372.40	2705.00
372.86	2708.00
373.33	2708.00
373.79	2712.00
374.26	2712.00
374.72	2726.00
375.19	2724.00
375.65	2733.00
376.11	2716.00
376.58	2722.00
377.04	2727.00
377.51	2723.00
377.97	2721.00
378.43	2717.00
378.90	2723.00
379.36	2720.00
379.82	2713.00
380.29	2727.00
380.75	2721.00
381.22	2721.00
381.68	2712.00
382.14	2721.00
382.61	2736.00
383.07	2725.00
383.53	2704.00
384.00	2708.00
384.46	2730.00
384.93	2712.00
385.39	2728.00
385.85	2702.00
386.32	2726.00
386.78	2720.00
387.24	2709.00
387.71	2727.00
388.17	2721.00
388.63	2732.00
389.10	2730.00
389.56	2810.00
390.02	2729.00
390.49	2696.00
390.95	2720.00
391.41	2720.00
391.88	2742.00
392.34	2733.00
392.80	2718.00
393.27	2734.00
393.73	2717.00
394.19	2741.00
394.66	2735.00
395.12	2727.00
395.58	2722.00
396.05	2713.00
396.51	2718.00
396.97	2731.00
397.43	2724.00
397.90	2720.00
398.36	2746.00
398.82	2723.00
399.29	2736.00
399.75	2720.00
400.21	2720.00
400.67	2728.00
401.14	2710.00
401.60	2709.00
402.06	2742.00
402.53	2713.00
402.99	2708.00
403.45	2733.00
403.91	2728.00
404.38	2724.00
404.84	2722.00
405.30	2740.00
405.76	2711.00
406.23	2736.00
406.69	2714.00
407.15	2718.00
407.61	2726.00
408.08	2729.00
408.54	2726.00
409.00	2703.00
409.46	2816.00
409.93	2715.00
410.39	2726.00
410.85	2736.00
411.31	2735.00
411.77	2710.00
412.24	2716.00
412.70	2718.00
413.16	2717.00
413.62	2720.00
414.09	2718.00
414.55	2701.00
415.01	2757.00
415.47	2714.00
415.93	2727.00
416.40	2705.00
416.86	2717.00
417.32	2710.00
417.78	2732.00
418.24	2714.00
418.71	2714.00
419.17	2718.00
419.63	2720.00
420.09	2730.00
420.55	2722.00
421.01	2736.00
421.48	2719.00
421.94	2732.00
422.40	2726.00
422.86	2722.00
423.32	2717.00
423.78	2730.00
424.25	2725.00
424.71	2716.00
425.17	2724.00
425.63	2711.00
426.09	2712.00
426.55	2717.00
427.01	2725.00
427.48	2711.00
427.94	2729.00
428.40	2711.00
428.86	2731.00
429.32	2721.00
429.78	2738.00
430.24	2734.00
430.71	2736.00
431.17	2695.00
431.63	2712.00
432.09	2734.00
432.55	2718.00
433.01	2716.00
433.47	2715.00
433.93	2718.00
434.39	2722.00
434.86	2713.00
435.32	2719.00
435.78	2718.00
436.24	2722.00
436.70	2726.00
437.16	2753.00
437.62	2716.00
438.08	2734.00
438.54	2723.00
439.00	2730.00
439.46	2729.00
439.93	2722.00
440.39	2719.00
440.85	2716.00
441.31	2730.00
441.77	2767.00
442.23	2734.00
442.69	2713.00
443.15	2731.00
443.61	2711.00
444.07	2697.00
444.53	2725.00
444.99	2720.00
445.45	2873.00
445.91	2710.00
446.37	2741.00
446.83	2737.00
447.29	2714.00
447.75	2727.00
448.21	2734.00
448.67	2729.00
449.14	2710.00
449.60	2712.00
450.06	2722.00
450.52	2726.00
450.98	2723.00
451.44	2740.00
451.90	2724.00
452.36	2717.00
452.82	2704.00
453.28	2715.00
453.74	2710.00
454.20	2707.00
454.66	2714.00
455.12	2723.00
455.58	2732.00
456.04	2718.00
456.50	2720.00
456.96	2752.00
457.42	2724.00
457.88	2717.00
458.33	2716.00
458.79	2722.00
459.25	2738.00
459.71	2719.00
460.17	2717.00
460.63	2714.00
461.09	2739.00
461.55	2720.00
462.01	2725.00
462.47	2713.00
462.93	2708.00
463.39	2713.00
463.85	2712.00
464.31	2745.00
464.77	2713.00
465.23	2721.00
465.69	2710.00
466.15	2712.00
466.61	2748.00
467.07	2719.00
467.52	2708.00
467.98	2724.00
468.44	2709.00
468.90	2722.00
469.36	2721.00
469.82	2710.00
470.28	2725.00
470.74	2727.00
471.20	2720.00
471.66	2713.00
472.12	2719.00
472.57	2701.00
473.03	2716.00
473.49	2721.00
473.95	2715.00
474.41	2720.00
474.87	2704.00
475.33	2744.00
475.79	2731.00
476.25	2713.00
476.70	2732.00
477.16	2712.00
477.62	2711.00
478.08	2736.00
478.54	2711.00
479.00	2720.00
479.46	2702.00
479.91	2738.00
480.37	2714.00
480.83	2740.00
481.29	2722.00
481.75	2726.00
482.21	2711.00
482.67	2723.00
483.12	2717.00
483.58	2718.00
484.04	2708.00
484.50	2730.00
484.96	2718.00
485.42	2751.00
485.87	2707.00
486.33	2722.00
486.79	2731.00
487.25	2719.00
487.71	2748.00
488.16	2721.00
488.62	2706.00
489.08	2740.00
489.54	2723.00
490.00	2703.00
490.45	2744.00
490.91	2722.00
491.37	2726.00
491.83	2714.00
492.29	2724.00
492.74	2741.00
493.20	2734.00
493.66	2734.00
494.12	2713.00
494.57	2723.00
495.03	2710.00
495.49	2759.00
495.95	2714.00
496.40	2727.00
496.86	2711.00
497.32	2727.00
497.78	2719.00
498.23	2711.00
498.69	2725.00
499.15	2721.00
499.61	2722.00
500.06	2724.00
500.52	2723.00
500.98	2719.00
501.44	2714.00
501.89	2746.00
502.35	2734.00
502.81	2735.00
503.27	2735.00
503.72	2786.00
504.18	2701.00
504.64	2706.00
505.09	2726.00
505.55	2718.00
506.01	2714.00
506.47	2730.00
506.92	2720.00
507.38	2727.00
507.84	2713.00
508.29	2709.00
508.75	2729.00
509.21	2713.00
509.66	2725.00
510.12	2751.00
510.58	2731.00
511.03	2770.00
511.49	2718.00
511.95	2734.00
512.40	2720.00
512.86	2721.00
513.32	2706.00
513.77	2718.00
514.23	2729.00
514.69	2717.00
515.14	2736.00
515.60	2718.00
516.06	2730.00
516.51	2731.00
516.97	2712.00
517.43	2715.00
517.88	2712.00
518.34	2725.00
518.79	2723.00
519.25	2703.00
519.71	2727.00
520.16	2733.00
520.62	2715.00
521.08	2737.00
521.53	2727.00
521.99	2719.00
522.44	2742.00
522.90	2723.00
523.36	2716.00
523.81	2724.00
524.27	2718.00
524.72	2716.00
525.18	2734.00
525.64	2717.00
526.09	2713.00
526.55	2736.00
527.00	2713.00
527.46	2709.00
527.92	2715.00
528.37	2699.00
528.83	2734.00
529.28	2721.00
529.74	2730.00
530.19	2715.00
530.65	2724.00
531.10	2724.00
531.56	2726.00
532.02	2709.00
532.47	2722.00
532.93	2713.00
533.38	2706.00
533.84	2727.00
534.29	2762.00
534.75	2722.00
535.20	2714.00
535.66	2720.00
536.11	2710.00
536.57	2735.00
537.02	2732.00
537.48	2722.00
537.93	2719.00
538.39	2716.00
538.84	2718.00
539.30	2725.00
539.75	2731.00
540.21	2716.00
540.66	2722.00
541.12	2728.00
541.57	2716.00
542.03	2720.00
542.48	2703.00
542.94	2726.00
543.39	2726.00
543.85	2723.00
544.30	2703.00
544.76	2726.00
545.21	2720.00
545.67	2812.00
546.12	2724.00
546.58	2748.00
547.03	2734.00
547.49	2736.00
547.94	2717.00
548.40	2721.00
548.85	2714.00
549.30	2709.00
549.76	2721.00
550.21	2732.00
550.67	2734.00
551.12	2722.00
551.58	2731.00
552.03	2726.00
552.48	2728.00
552.94	2713.00
553.39	2728.00
553.85	2730.00
554.30	2712.00
554.76	2732.00
555.21	2718.00
555.66	2714.00
556.12	2711.00
556.57	2705.00
557.03	2716.00
557.48	2708.00
557.93	2729.00
558.39	2719.00
558.84	2721.00
559.30	2732.00
559.75	2711.00
560.20	2719.00
560.66	2722.00
561.11	2717.00
561.56	2738.00
562.02	2711.00
562.47	2738.00
562.92	2728.00
563.38	2725.00
563.83	2711.00
564.29	2726.00
564.74	2708.00
565.19	2725.00
565.65	2721.00
566.10	2706.00
566.55	2713.00
567.01	2726.00
567.46	2763.00
567.91	2717.00
568.37	2720.00
568.82	2720.00
569.27	2707.00
569.73	2736.00
570.18	2719.00
570.63	2712.00
571.08	2739.00
571.54	2707.00
571.99	2748.00
572.44	2710.00
572.90	2721.00
573.35	2714.00
573.80	2732.00
574.26	2720.00
574.71	2734.00
575.16	2736.00
575.61	2717.00
576.07	2712.00
576.52	2726.00
576.97	2729.00
577.42	2746.00
577.88	2708.00
578.33	2716.00
578.78	2722.00
579.24	2733.00
579.69	2716.00
580.14	2723.00
580.59	2715.00
581.05	2704.00
581.50	2714.00
581.95	2720.00
582.40	2730.00
582.85	2706.00
583.31	2720.00
583.76	2756.00
584.21	2712.00
584.66	2720.00
585.12	2727.00
585.57	2733.00
586.02	2728.00
586.47	2715.00
586.92	2721.00
587.38	2738.00
587.83	2716.00
588.28	2740.00
588.73	2721.00
589.18	2710.00
589.64	2710.00
590.09	2714.00
590.54	2737.00
590.99	2705.00
591.44	2715.00
591.90	2713.00
592.35	2727.00
592.80	2711.00
593.25	2729.00
593.70	2723.00
594.15	2712.00
594.61	2735.00
595.06	2714.00
595.51	2729.00
595.96	2720.00
596.41	2723.00
596.86	2740.00
597.31	2745.00
597.77	2716.00
598.22	2725.00
598.67	2741.00
599.12	2740.00
599.57	2725.00
600.02	2719.00
600.47	2716.00
600.92	2705.00
601.38	2723.00
601.83	2719.00
602.28	2714.00
602.73	2706.00
603.18	2733.00
603.63	2754.00
604.08	2710.00
604.53	2735.00
604.98	2717.00
605.43	2742.00
605.89	2708.00
606.34	2691.00
606.79	2723.00
607.24	2717.00
607.69	2734.00
608.14	2722.00
608.59	2721.00
609.04	2716.00
609.49	2716.00
609.94	2722.00
610.39	2732.00
610.84	2714.00
611.29	2729.00
611.74	2720.00
612.19	2704.00
612.64	2729.00
613.10	2742.00
613.55	2724.00
614.00	2711.00
614.45	2726.00
614.90	2773.00
615.35	2712.00
615.80	2715.00
616.25	2725.00
616.70	2728.00
617.15	2710.00
617.60	2724.00
618.05	2725.00
618.50	2732.00
618.95	2738.00
619.40	2722.00
619.85	2726.00
620.30	2711.00
620.75	2716.00
621.20	2707.00
621.65	2712.00
622.10	2713.00
622.55	2727.00
623.00	2718.00
623.45	2725.00
623.89	2702.00
624.34	2735.00
624.79	2734.00
625.24	2707.00
625.69	2725.00
626.14	2709.00
626.59	2712.00
627.04	2752.00
627.49	2715.00
627.94	2713.00
628.39	2719.00
628.84	2697.00
629.29	2715.00
629.74	2711.00
630.19	2713.00
630.64	2725.00
631.09	2715.00
631.53	2716.00
631.98	2732.00
632.43	2720.00
632.88	2718.00
633.33	2721.00
633.78	2726.00
634.23	2741.00
634.68	2701.00
635.13	2717.00
635.58	2730.00
636.02	2724.00
636.47	2721.00
636.92	2741.00
637.37	2707.00
637.82	2713.00
638.27	2744.00
638.72	2720.00
639.16	2715.00
639.61	2713.00
640.06	2712.00
640.51	2723.00
640.96	2703.00
641.41	2732.00
641.86	2734.00
642.30	2698.00
642.75	2725.00
643.20	2718.00
643.65	2732.00
644.10	2715.00
644.55	2729.00
644.99	2710.00
645.44	2709.00
645.89	2722.00
646.34	2725.00
646.79	2721.00
647.23	2727.00
647.68	2718.00
648.13	2725.00
648.58	2721.00
649.03	2725.00
649.47	2708.00
649.92	2708.00
650.37	2724.00
650.82	2699.00
651.27	2706.00
651.71	2714.00
652.16	2717.00
652.61	2740.00
653.06	2862.00
653.50	2711.00
653.95	2717.00
654.40	2707.00
654.85	2719.00
655.29	2712.00
655.74	2732.00
656.19	2709.00
656.64	2726.00
657.08	2772.00
657.53	2721.00
657.98	2734.00
658.43	2721.00
658.87	2719.00
659.32	2732.00
659.77	2749.00
660.21	2718.00
660.66	2734.00
661.11	2730.00
661.56	2712.00
662.00	2714.00
662.45	2714.00
662.90	2719.00
663.34	2738.00
663.79	2714.00
664.24	2712.00
664.68	2718.00
665.13	2738.00
665.58	2726.00
666.02	2718.00
666.47	2714.00
666.92	2744.00
667.36	2713.00
667.81	2720.00
668.26	2735.00
668.70	2707.00
669.15	2723.00
669.60	2717.00
670.04	2722.00
670.49	2703.00
670.94	2721.00
671.38	2720.00
671.83	2722.00
672.28	2732.00
672.72	2735.00
673.17	2721.00
673.61	2707.00
674.06	2746.00
674.51	2724.00
674.95	2721.00
675.40	2712.00
675.85	2750.00
676.29	2709.00
676.74	2725.00
677.18	2713.00
677.63	2714.00
678.07	2722.00
678.52	2727.00
678.97	2717.00
679.41	2742.00
679.86	2720.00
680.30	2732.00
680.75	2718.00
681.20	2715.00
681.64	2724.00
682.09	2724.00
682.53	2714.00
682.98	2721.00
683.42	2721.00
683.87	2741.00
684.31	2720.00
684.76	2746.00
685.20	2701.00
685.65	2705.00
686.10	2691.00
686.54	2716.00
686.99	2731.00
687.43	2714.00
687.88	2709.00
688.32	2707.00
688.77	2709.00
689.21	2717.00
689.66	2710.00
690.10	2722.00
690.55	2717.00
690.99	2717.00
691.44	2718.00
691.88	2712.00
692.33	2713.00
692.77	2741.00
693.22	2708.00
693.66	2705.00
694.11	2724.00
694.55	2713.00
695.00	2744.00
695.44	2704.00
695.88	2724.00
696.33	2713.00
696.77	2734.00
697.22	2786.00
697.66	2759.00
698.11	2703.00
698.55	2720.00
699.00	2697.00
699.44	2728.00
699.88	2710.00
700.33	2732.00
700.77	2722.00
701.22	2718.00
701.66	2778.00
702.11	2730.00
702.55	2726.00
702.99	2723.00
703.44	2707.00
703.88	2721.00
704.33	2728.00
704.77	2727.00
705.21	2715.00
705.66	2708.00
706.10	2727.00
706.54	2733.00
706.99	2729.00
707.43	2707.00
707.88	2748.00
708.32	2716.00
708.76	2741.00
709.21	2708.00
709.65	2701.00
710.09	2722.00
710.54	2710.00
710.98	2696.00
711.42	2720.00
711.87	2744.00
712.31	2728.00
712.76	2729.00
713.20	2700.00
713.64	2705.00
714.08	2719.00
714.53	2736.00
714.97	2696.00
715.41	2718.00
715.86	2736.00
716.30	2738.00
716.74	2732.00
717.19	2709.00
717.63	2714.00
718.07	2725.00
718.52	2710.00
718.96	2714.00
719.40	2711.00
719.84	2708.00
720.29	2717.00
720.73	2716.00
721.17	2718.00
721.62	2702.00
722.06	2722.00
722.50	2726.00
722.94	2710.00
723.39	2705.00
723.83	2721.00
724.27	2701.00
724.71	2716.00
725.16	2722.00
725.60	2731.00
726.04	2722.00
726.48	2718.00
726.93	2731.00
727.37	2714.00
727.81	2699.00
728.25	2712.00
728.69	2733.00
729.14	2737.00
729.58	2722.00
730.02	2724.00
730.46	2727.00
730.90	2726.00
731.35	2703.00
731.79	2712.00
732.23	2704.00
732.67	2738.00
733.11	2734.00
733.56	2712.00
734.00	2749.00
734.44	2726.00
734.88	2726.00
735.32	2709.00
735.76	2716.00
736.21	2727.00
736.65	2706.00
737.09	2725.00
737.53	2727.00
737.97	2716.00
738.41	2756.00
738.85	2720.00
739.30	2732.00
739.74	2717.00
740.18	2716.00
740.62	2716.00
741.06	2715.00
741.50	2741.00
741.94	2711.00
742.38	2715.00
742.83	2723.00
743.27	2716.00
743.71	2741.00
744.15	2710.00
744.59	2726.00
745.03	2711.00
745.47	2727.00
745.91	2712.00
746.35	2720.00
746.79	2733.00
747.23	2715.00
747.68	2723.00
748.12	2734.00
748.56	2728.00
749.00	2721.00
749.44	2706.00
749.88	2718.00
750.32	2724.00
750.76	2722.00
751.20	2702.00
751.64	2705.00
752.08	2697.00
752.52	2721.00
752.96	2721.00
753.40	2714.00
753.84	2713.00
754.28	2713.00
754.72	2714.00
755.16	2718.00
755.60	2735.00
756.04	2720.00
756.48	2708.00
756.92	2718.00
757.36	2708.00
757.80	2741.00
758.24	2710.00
758.68	2720.00
759.12	2721.00
759.56	2727.00
760.00	2725.00
760.44	2720.00
760.88	2718.00
761.32	2726.00
761.76	2746.00
762.20	2731.00
762.64	2732.00
763.08	2710.00
763.52	2732.00
763.96	2735.00
764.40	2715.00
764.84	2714.00
765.28	2720.00
765.72	2720.00
766.15	2717.00
766.59	2706.00
767.03	2721.00
767.47	2778.00
767.91	2720.00
768.35	2728.00
768.79	2729.00
769.23	2737.00
769.67	2722.00
770.11	2725.00
770.55	2705.00
770.98	2712.00
771.42	2728.00
771.86	2725.00
772.30	2708.00
772.74	2726.00
773.18	2710.00
773.62	2711.00
774.06	2730.00
774.49	2714.00
774.93	2727.00
775.37	2718.00
775.81	2715.00
776.25	2721.00
776.69	2723.00
777.13	2706.00
777.56	2724.00
778.00	2763.00
778.44	2721.00
778.88	2747.00
779.32	2713.00
779.76	2717.00
780.19	2724.00
780.63	2727.00
781.07	2714.00
781.51	2716.00
781.95	2750.00
782.38	2720.00
782.82	2814.00
783.26	2705.00
783.70	2718.00
784.14	2729.00
784.57	2740.00
785.01	2711.00
785.45	2694.00
785.89	2711.00
786.32	2742.00
786.76	2722.00
787.20	2717.00
787.64	2704.00
788.07	2715.00
788.51	2720.00
788.95	2725.00
789.39	2746.00
789.82	2701.00
790.26	2734.00
790.70	2723.00
791.14	2731.00
791.57	2703.00
792.01	2710.00
792.45	2729.00
792.88	2720.00
793.32	2728.00
793.76	2718.00
794.20	2724.00
794.63	2714.00
795.07	2728.00
795.51	2732.00
795.94	2755.00
796.38	2720.00
796.82	2723.00
797.25	2722.00
797.69	2730.00
798.13	2712.00
798.56	2721.00
799.00	2712.00
799.44	2719.00
799.87	2724.00
800.31	2716.00
800.75	2727.00
801.18	2724.00
801.62	2707.00
802.06	2722.00
802.49	2713.00
802.93	2734.00
803.37	2716.00
803.80	2718.00
804.24	2705.00
804.67	2727.00
805.11	2726.00
805.55	2723.00
805.98	2726.00
806.42	2729.00
806.85	2724.00
807.29	2732.00
807.73	2726.00
808.16	2720.00
808.60	2724.00
809.03	2722.00
809.47	2723.00
809.91	2736.00
810.34	2728.00
810.78	2743.00
811.21	2700.00
811.65	2720.00
812.08	2734.00
812.52	2726.00
812.96	2720.00
813.39	2711.00
813.83	2716.00
814.26	2720.00
814.70	2729.00
815.13	2734.00
815.57	2735.00
816.00	2723.00
816.44	2716.00
816.87	2726.00
817.31	2722.00
817.74	2738.00
818.18	2728.00
818.61	2721.00
819.05	2730.00
819.48	2712.00
819.92	2748.00
820.35	2724.00
820.79	2729.00
821.22	2731.00
821.66	2718.00
822.09	2728.00
822.53	2714.00
822.96	2732.00
823.40	2730.00
823.83	2715.00
824.27	2708.00
824.70	2703.00
825.13	2713.00
825.57	2713.00
826.00	2725.00
826.44	2724.00
826.87	2720.00
827.31	2742.00
827.74	2715.00
828.17	2737.00
828.61	2714.00
829.04	2727.00
829.48	2726.00
829.91	2715.00
830.35	2719.00
830.78	2725.00
831.21	2716.00
831.65	2718.00
832.08	2719.00
832.52	2712.00
832.95	2715.00
833.38	2722.00
833.82	2718.00
834.25	2713.00
834.68	2725.00
835.12	2729.00
835.55	2760.00
835.98	2711.00
836.42	2718.00
836.85	2696.00
837.29	2710.00
837.72	2713.00
838.15	2724.00
838.59	2709.00
839.02	2734.00
839.45	2716.00
839.89	2713.00
840.32	2721.00
840.75	2719.00
841.18	2728.00
841.62	2713.00
842.05	2720.00
842.48	2755.00
842.92	2714.00
843.35	2705.00
843.78	2725.00
844.22	2714.00
844.65	2742.00
845.08	2715.00
845.51	2703.00
845.95	2738.00
846.38	2715.00
846.81	2720.00
847.24	2720.00
847.68	2715.00
848.11	2732.00
848.54	2740.00
848.97	2718.00
849.41	2744.00
849.84	2714.00
850.27	2709.00
850.70	2720.00
851.14	2742.00
851.57	2752.00
852.00	2741.00
852.43	2714.00
852.87	2729.00
853.30	2734.00
853.73	2726.00
854.16	2725.00
854.59	2735.00
855.03	2705.00
855.46	2725.00
855.89	2723.00
856.32	2716.00
856.75	2743.00
857.18	2734.00
857.62	2723.00
858.05	2745.00
858.48	2716.00
858.91	2716.00
859.34	2721.00
859.77	2716.00
860.21	2715.00
860.64	2713.00
861.07	2723.00
861.50	2719.00
861.93	2709.00
862.36	2726.00
862.79	2712.00
863.23	2747.00
863.66	2737.00
864.09	2709.00
864.52	2737.00
864.95	2727.00
865.38	2718.00
865.81	2752.00
866.24	2722.00
866.67	2735.00
867.10	2728.00
867.54	2731.00
867.97	2733.00
868.40	2705.00
868.83	2726.00
869.26	2722.00
869.69	2751.00
870.12	2695.00
870.55	2704.00
870.98	2722.00
871.41	2712.00
871.84	2730.00
872.27	2712.00
872.70	2748.00
873.13	2725.00
873.56	2750.00
873.99	2742.00
874.42	2710.00
874.85	2720.00
875.28	2713.00
875.71	2751.00
876.14	2719.00
876.57	2711.00
877.00	2722.00
877.43	2729.00
877.86	2714.00
878.29	2720.00
878.72	2713.00
879.15	2704.00
879.58	2717.00
880.01	2708.00
880.44	2745.00
880.87	2719.00
881.30	2710.00
881.73	2752.00
882.16	2731.00
882.59	2726.00
883.02	2707.00
883.45	2718.00
883.88	2715.00
884.31	2740.00
884.74	2726.00
885.17	2726.00
885.60	2735.00
886.03	2717.00
886.46	2717.00
886.88	2726.00
887.31	2722.00
887.74	2720.00
888.17	2726.00
888.60	2723.00
889.03	2729.00
889.46	2723.00
889.89	2711.00
890.32	2731.00
890.75	2725.00
891.17	2710.00
891.60	2728.00
892.03	2718.00
892.46	2720.00
892.89	2735.00
893.32	2716.00
893.75	2721.00
894.17	2719.00
894.60	2728.00
895.03	2710.00
895.46	2727.00
895.89	2728.00
896.32	2716.00
896.74	2718.00
897.17	2713.00
897.60	2725.00
898.03	2704.00
898.46	2730.00
898.89	2729.00
899.31	2721.00
899.74	2729.00
900.17	2708.00
900.60	2730.00
901.02	2734.00
901.45	2720.00
901.88	2715.00
902.31	2715.00
902.74	2722.00
903.16	2736.00
903.59	2710.00
904.02	2727.00
904.45	2712.00
904.87	2730.00
905.30	2737.00
905.73	2718.00
906.16	2772.00
906.58	2722.00
907.01	2705.00
907.44	2744.00
907.87	2721.00
908.29	2722.00
908.72	2727.00
909.15	2728.00
909.57	2718.00
910.00	2703.00
910.43	2725.00
910.86	2714.00
911.28	2763.00
911.71	2732.00
912.14	2735.00
912.56	2710.00
912.99	2741.00
913.42	2732.00
913.84	2707.00
914.27	2699.00
914.70	2722.00
915.12	2717.00
915.55	2718.00
915.98	2728.00
916.40	2715.00
916.83	2722.00
917.26	2736.00
917.68	2738.00
918.11	2723.00
918.53	2702.00
918.96	2710.00
919.39	2735.00
919.81	2724.00
920.24	2709.00
920.66	2750.00
921.09	2697.00
921.52	2739.00
921.94	2715.00
922.37	2729.00
922.79	2722.00
923.22	2746.00
923.65	2723.00
924.07	2729.00
924.50	2727.00
924.92	2744.00
925.35	2735.00
925.77	2708.00
926.20	2729.00
926.63	2753.00
927.05	2730.00
927.48	2725.00
927.90	2730.00
928.33	2745.00
928.75	2709.00
929.18	2727.00
929.60	2718.00
930.03	2727.00
930.45	2729.00
930.88	2733.00
931.30	2696.00
931.73	2717.00
932.15	2746.00
932.58	2722.00
933.00	2716.00
933.43	2712.00
933.85	2710.00
934.28	2731.00
934.70	2724.00
935.13	2726.00
935.55	2732.00
935.98	2708.00
936.40	2714.00
936.83	2734.00
937.25	2733.00
937.68	2747.00
938.10	2728.00
938.52	2734.00
938.95	2712.00
939.37	2715.00
939.80	2723.00
940.22	2758.00
940.65	2730.00
941.07	2718.00
941.49	2716.00
941.92	2723.00
942.34	2741.00
942.77	2723.00
943.19	2715.00
943.61	2719.00
944.04	2740.00
944.46	2729.00
944.89	2718.00
945.31	2713.00
945.73	2711.00
946.16	2745.00
946.58	2715.00
947.00	2717.00
947.43	2740.00
947.85	2730.00
948.27	2716.00
948.70	2733.00
949.12	2729.00
949.54	2725.00
949.97	2734.00
950.39	2720.00
950.81	2715.00
951.24	2716.00
951.66	2707.00
952.08	2722.00
952.51	2706.00
952.93	2721.00
953.35	2728.00
953.78	2735.00
954.20	2709.00
954.62	2724.00
955.04	2728.00
955.47	2725.00
955.89	2712.00
956.31	2719.00
956.74	2729.00
957.16	2719.00
957.58	2722.00
958.00	2730.00
958.43	2700.00
958.85	2715.00
959.27	2703.00
959.69	2739.00
960.12	2720.00
960.54	2729.00
960.96	2701.00
961.38	2714.00
961.80	2711.00
962.23	2723.00
962.65	2719.00
963.07	2720.00
963.49	2705.00
963.91	2728.00
964.34	2727.00
964.76	2706.00
965.18	2727.00
965.60	2713.00
966.02	2719.00
966.45	2716.00
966.87	2709.00
967.29	2756.00
967.71	2718.00
968.13	2725.00
968.55	2717.00
968.98	2717.00
969.40	2722.00
969.82	2744.00
970.24	2717.00
970.66	2730.00
971.08	2718.00
971.50	2715.00
971.92	2714.00
972.35	2708.00
972.77	2726.00
973.19	2720.00
973.61	2726.00
974.03	2702.00
974.45	2716.00
974.87	2740.00
975.29	2728.00
975.71	2730.00
976.13	2720.00
976.56	2752.00
976.98	2757.00
977.40	2723.00
977.82	2737.00
978.24	2723.00
978.66	2704.00
979.08	2731.00
979.50	2730.00
979.92	2740.00
980.34	2721.00
980.76	2748.00
981.18	2731.00
981.60	2713.00
982.02	2724.00
982.44	2703.00
982.86	2735.00
983.28	2723.00
983.70	2729.00
984.12	2711.00
984.54	2740.00
984.96	2722.00
985.38	2709.00
985.80	2707.00
986.22	2735.00
986.64	2716.00
987.06	2735.00
987.48	2731.00
987.90	2710.00
988.32	2726.00
988.74	2722.00
989.16	2757.00
989.58	2714.00
990.00	2711.00
990.42	2719.00
990.84	2725.00
991.26	2726.00
991.67	2732.00
992.09	2714.00
992.51	2725.00
992.93	2742.00
993.35	2732.00
993.77	2705.00
994.19	2686.00
994.61	2694.00
995.03	2717.00
995.45	2717.00
995.87	2718.00
996.28	2712.00
996.70	2725.00
997.12	2736.00
997.54	2709.00
997.96	2716.00
998.38	2731.00
998.80	2732.00
999.21	2714.00
999.63	2726.00
1000.05	2739.00
1000.47	2718.00
1000.89	2731.00
1001.31	2733.00
1001.72	2717.00
1002.14	2718.00
1002.56	2728.00
1002.98	2725.00
1003.40	2726.00
1003.82	2722.00
1004.23	2722.00
1004.65	2748.00
1005.07	2752.00
1005.49	2743.00
1005.90	2760.00
1006.32	2731.00
1006.74	2718.00
1007.16	2734.00
1007.58	2731.00
1007.99	2738.00
1008.41	2703.00
1008.83	2736.00
1009.25	2709.00
1009.66	2722.00
1010.08	2704.00
1010.50	2707.00
1010.92	2744.00
1011.33	2732.00
1011.75	2736.00
1012.17	2742.00
1012.58	2741.00
1013.00	2780.00
1013.42	2738.00
1013.84	2719.00
1014.25	2733.00
1014.67	2718.00
1015.09	2728.00
1015.50	2726.00
1015.92	2728.00
1016.34	2700.00
1016.75	2704.00
1017.17	2745.00
1017.59	2732.00
1018.00	2732.00
1018.42	2709.00
1018.84	2714.00
1019.25	2730.00
1019.67	2719.00
1020.09	2745.00
1020.50	2713.00
1020.92	2725.00
1021.33	2722.00
1021.75	2713.00
1022.17	2738.00
1022.58	2717.00
1023.00	2727.00
1023.42	2715.00
1023.83	2729.00
1024.25	2720.00
1024.66	2706.00
1025.08	2727.00
1025.50	2710.00
1025.91	2726.00
1026.33	2712.00
1026.74	2728.00
1027.16	2716.00
1027.57	2709.00
1027.99	2734.00
1028.40	2727.00
1028.82	2712.00
1029.24	2741.00
1029.65	2739.00
1030.07	2746.00
1030.48	2724.00
1030.90	2780.00
1031.31	2724.00
1031.73	2730.00
1032.14	2717.00
1032.56	2720.00
1032.97	2715.00
1033.39	2717.00
1033.80	2695.00
1034.22	2697.00
1034.63	2737.00
1035.05	2732.00
1035.46	2712.00
1035.88	2721.00
1036.29	2778.00
1036.71	2718.00
1037.12	2748.00
1037.54	2727.00
1037.95	2727.00
1038.36	2771.00
1038.78	2716.00
1039.19	2724.00
1039.61	2716.00
1040.02	2728.00
1040.44	2736.00
1040.85	2726.00
1041.27	2735.00
1041.68	2727.00
1042.09	2722.00
1042.51	2724.00
1042.92	2721.00
1043.34	2725.00
1043.75	2701.00
1044.16	2756.00
1044.58	2733.00
1044.99	2729.00
1045.40	2719.00
1045.82	2727.00
1046.23	2730.00
1046.65	2723.00
1047.06	2713.00
1047.47	2711.00
1047.89	2772.00
1048.30	2728.00
1048.71	2726.00
1049.13	2747.00
1049.54	2716.00
1049.95	2712.00
1050.37	2722.00
1050.78	2732.00
1051.19	2720.00
1051.61	2724.00
1052.02	2717.00
1052.43	2719.00
1052.85	2749.00
1053.26	2725.00
1053.67	2730.00
1054.08	2731.00
1054.50	2714.00
1054.91	2733.00
1055.32	2730.00
1055.74	2710.00
1056.15	2727.00
1056.56	2715.00
1056.97	2726.00
1057.39	2729.00
1057.80	2727.00
1058.21	2725.00
1058.62	2721.00
1059.03	2717.00
1059.45	2729.00
1059.86	2720.00
1060.27	2768.00
1060.68	2722.00
1061.10	2735.00
1061.51	2715.00
1061.92	2746.00
1062.33	2712.00
1062.74	2721.00
1063.16	2728.00
1063.57	2727.00
1063.98	2706.00
1064.39	2732.00
1064.80	2734.00
1065.21	2727.00
1065.63	2725.00
1066.04	2756.00
1066.45	2717.00
1066.86	2742.00
1067.27	2729.00
1067.68	2704.00
1068.10	2726.00
1068.51	2735.00
1068.92	2722.00
1069.33	2711.00
1069.74	2724.00
1070.15	2720.00
1070.56	2719.00
1070.97	2721.00
1071.38	2743.00
1071.80	2726.00
1072.21	2738.00
1072.62	2733.00
1073.03	2710.00
1073.44	2741.00
1073.85	2722.00
1074.26	2738.00
1074.67	2736.00
1075.08	2740.00
1075.49	2722.00
1075.90	2710.00
1076.31	2724.00
1076.72	2709.00
1077.13	2713.00
1077.54	2716.00
1077.95	2709.00
1078.36	2734.00
1078.77	2738.00
1079.19	2726.00
1079.60	2748.00
1080.01	2723.00
1080.42	2750.00
1080.83	2708.00
1081.24	2731.00
1081.65	2721.00
1082.05	2722.00
1082.46	2721.00
1082.87	2747.00
1083.28	2733.00
1083.69	2746.00
1084.10	2735.00
1084.51	2729.00
1084.92	2716.00
1085.33	2732.00
1085.74	2705.00
1086.15	3051.00
1086.56	2722.00
1086.97	2721.00
1087.38	2721.00
1087.79	2750.00
1088.20	2733.00
1088.61	2732.00
1089.02	2724.00
1089.42	2724.00
1089.83	2713.00
1090.24	2751.00
1090.65	2721.00
1091.06	2719.00
1091.47	2730.00
1091.88	2752.00
1092.29	2718.00
1092.70	2717.00
1093.10	2742.00
1093.51	2752.00
1093.92	2720.00
1094.33	2721.00
1094.74	2724.00
1095.15	2736.00
1095.55	2712.00
1095.96	2715.00
1096.37	2716.00
1096.78	2725.00
1097.19	2736.00
1097.60	2713.00
1098.00	2719.00
1098.41	2711.00
1098.82	2735.00
1099.23	2734.00
1099.64	2733.00
1100.04	2722.00
1100.45	2715.00
1100.86	2752.00
1101.27	2719.00
1101.67	2740.00
1102.08	2724.00
1102.49	2717.00
1102.90	2723.00
1103.31	2722.00
1103.71	2706.00
1104.12	2714.00
1104.53	2717.00
1104.93	2712.00
1105.34	2734.00
1105.75	2714.00
1106.16	2710.00
1106.56	2724.00
1106.97	2700.00
1107.38	2724.00
1107.78	2712.00
1108.19	2721.00
1108.60	2725.00
1109.01	2716.00
1109.41	2729.00
1109.82	2731.00
1110.23	2727.00
1110.63	2716.00
1111.04	2728.00
1111.45	2716.00
1111.85	2722.00
1112.26	2710.00
1112.67	2723.00
1113.07	2721.00
1113.48	2703.00
1113.88	2703.00
1114.29	2695.00
1114.70	2577.00
1115.10	2579.00
1115.51	2581.00
1115.92	2580.00
>>>>>End Processed Spectral Data<<<<<
