SpectraSuite Data File
++++++++++++++++++++++++++++++++++++
Date: Fri Aug 21 17:52:30 EEST 2020
User: CanSEE
Dark Spectrum Present: No
Reference Spectrum Present: No
Number of Sampled Component Spectra: 1
Spectrometers: MAYP112785
Integration Time (usec): 150000 (MAYP112785)
Spectra Averaged: 1 (MAYP112785)
Boxcar Smoothing: 0 (MAYP112785)
Correct for Electrical Dark: No (MAYP112785)
Strobe/Lamp Enabled: No (MAYP112785)
Correct for Detector Non-linearity: No (MAYP112785)
Correct for Stray Light: No (MAYP112785)
Number of Pixels in Processed Spectrum: 2068
>>>>>Begin Processed Spectral Data<<<<<
198.73	3554.00
199.20	2508.00
199.67	2615.00
200.14	2600.00
200.61	2881.00
201.08	2880.00
201.56	2872.00
202.03	2955.00
202.50	2936.00
202.97	2929.00
203.44	2941.00
203.91	2939.00
204.39	2946.00
204.86	2988.00
205.33	2940.00
205.80	2953.00
206.27	2956.00
206.74	2966.00
207.21	2948.00
207.69	2935.00
208.16	2944.00
208.63	2946.00
209.10	2948.00
209.57	2969.00
210.04	2959.00
210.51	2947.00
210.98	2935.00
211.46	2945.00
211.93	2967.00
212.40	2941.00
212.87	2948.00
213.34	2957.00
213.81	2950.00
214.28	2934.00
214.75	2965.00
215.23	2936.00
215.70	2934.00
216.17	2961.00
216.64	2937.00
217.11	2937.00
217.58	2941.00
218.05	2994.00
218.52	2958.00
218.99	2985.00
219.46	2922.00
219.94	2956.00
220.41	2948.00
220.88	2940.00
221.35	2975.00
221.82	2952.00
222.29	2961.00
222.76	2972.00
223.23	2942.00
223.70	2942.00
224.17	2959.00
224.64	2957.00
225.11	2943.00
225.58	2947.00
226.06	2943.00
226.53	2969.00
227.00	2980.00
227.47	2981.00
227.94	2956.00
228.41	2964.00
228.88	2971.00
229.35	2997.00
229.82	2953.00
230.29	2946.00
230.76	2942.00
231.23	2967.00
231.70	2962.00
232.17	2933.00
232.64	2950.00
233.11	2948.00
233.58	2919.00
234.05	2977.00
234.52	2967.00
235.00	2982.00
235.47	2965.00
235.94	2954.00
236.41	2957.00
236.88	2960.00
237.35	2952.00
237.82	2944.00
238.29	2960.00
238.76	2958.00
239.23	2981.00
239.70	4200.00
240.17	2957.00
240.64	2997.00
241.11	2969.00
241.58	2961.00
242.05	2968.00
242.52	2968.00
242.99	2964.00
243.46	2957.00
243.93	2959.00
244.40	2971.00
244.87	2955.00
245.34	2986.00
245.81	3246.00
246.28	2966.00
246.75	2956.00
247.22	2957.00
247.69	2967.00
248.16	2988.00
248.63	3012.00
249.10	2950.00
249.57	2977.00
250.04	2987.00
250.51	2958.00
250.98	2970.00
251.44	2984.00
251.91	2956.00
252.38	2953.00
252.85	2952.00
253.32	2967.00
253.79	2950.00
254.26	2964.00
254.73	2974.00
255.20	2977.00
255.67	2930.00
256.14	2983.00
256.61	2939.00
257.08	2980.00
257.55	2980.00
258.02	2961.00
258.49	2965.00
258.96	2990.00
259.43	2990.00
259.90	2988.00
260.36	2981.00
260.83	2966.00
261.30	3013.00
261.77	2979.00
262.24	2976.00
262.71	2951.00
263.18	2977.00
263.65	2961.00
264.12	2993.00
264.59	2968.00
265.06	3033.00
265.53	2975.00
265.99	3001.00
266.46	2952.00
266.93	2940.00
267.40	2987.00
267.87	2995.00
268.34	2959.00
268.81	2967.00
269.28	2960.00
269.75	2940.00
270.22	2982.00
270.68	2959.00
271.15	2988.00
271.62	2973.00
272.09	2990.00
272.56	2974.00
273.03	2991.00
273.50	2983.00
273.97	2963.00
274.43	2957.00
274.90	3013.00
275.37	2983.00
275.84	2949.00
276.31	2942.00
276.78	2972.00
277.25	2972.00
277.71	2943.00
278.18	2967.00
278.65	3016.00
279.12	2975.00
279.59	2969.00
280.06	2961.00
280.53	3043.00
280.99	2961.00
281.46	2989.00
281.93	2981.00
282.40	2946.00
282.87	2973.00
283.34	2979.00
283.80	2946.00
284.27	2987.00
284.74	2979.00
285.21	2945.00
285.68	2969.00
286.15	2958.00
286.61	2929.00
287.08	2977.00
287.55	2966.00
288.02	2973.00
288.49	2970.00
288.95	2976.00
289.42	2954.00
289.89	2984.00
290.36	2969.00
290.83	2967.00
291.29	2967.00
291.76	2945.00
292.23	2959.00
292.70	2955.00
293.17	2932.00
293.63	2972.00
294.10	2938.00
294.57	2972.00
295.04	2930.00
295.51	2954.00
295.97	2961.00
296.44	2984.00
296.91	2953.00
297.38	2943.00
297.84	3038.00
298.31	2941.00
298.78	2988.00
299.25	2973.00
299.71	2979.00
300.18	2952.00
300.65	2939.00
301.12	2931.00
301.58	2950.00
302.05	2992.00
302.52	2945.00
302.99	2961.00
303.45	2953.00
303.92	2982.00
304.39	2984.00
304.86	2988.00
305.32	2968.00
305.79	2941.00
306.26	2952.00
306.73	2968.00
307.19	2962.00
307.66	2938.00
308.13	2967.00
308.60	2970.00
309.06	2956.00
309.53	2958.00
310.00	2942.00
310.46	2938.00
310.93	2951.00
311.40	2950.00
311.87	2974.00
312.33	2963.00
312.80	2933.00
313.27	2986.00
313.73	2980.00
314.20	2996.00
314.67	2945.00
315.13	2984.00
315.60	2931.00
316.07	2976.00
316.53	2951.00
317.00	2957.00
317.47	2966.00
317.94	2965.00
318.40	2954.00
318.87	2962.00
319.34	2968.00
319.80	2934.00
320.27	2939.00
320.74	2965.00
321.20	2963.00
321.67	2945.00
322.14	2929.00
322.60	2938.00
323.07	2930.00
323.54	2960.00
324.00	2977.00
324.47	2949.00
324.93	2956.00
325.40	2974.00
325.87	2935.00
326.33	2970.00
326.80	2989.00
327.27	2961.00
327.73	2930.00
328.20	2967.00
328.67	2954.00
329.13	2959.00
329.60	2965.00
330.06	2973.00
330.53	2969.00
331.00	2961.00
331.46	2929.00
331.93	2927.00
332.40	2934.00
332.86	2937.00
333.33	2958.00
333.79	2938.00
334.26	2927.00
334.73	2944.00
335.19	2964.00
335.66	2983.00
336.12	2949.00
336.59	2949.00
337.06	2976.00
337.52	2939.00
337.99	2953.00
338.45	2960.00
338.92	2939.00
339.38	2947.00
339.85	2941.00
340.32	2952.00
340.78	2946.00
341.25	2953.00
341.71	2946.00
342.18	3003.00
342.64	2984.00
343.11	2974.00
343.58	2963.00
344.04	2944.00
344.51	2988.00
344.97	2955.00
345.44	2930.00
345.90	2971.00
346.37	3008.00
346.83	2949.00
347.30	2949.00
347.77	2960.00
348.23	2943.00
348.70	2951.00
349.16	2948.00
349.63	2934.00
350.09	2985.00
350.56	2932.00
351.02	2943.00
351.49	2961.00
351.95	2976.00
352.42	2971.00
352.88	2953.00
353.35	2968.00
353.81	2953.00
354.28	2938.00
354.74	2948.00
355.21	2933.00
355.67	2965.00
356.14	3010.00
356.60	2960.00
357.07	2997.00
357.53	2937.00
358.00	2944.00
358.46	2960.00
358.93	3019.00
359.39	2918.00
359.86	3031.00
360.32	2934.00
360.79	2928.00
361.25	2952.00
361.72	2980.00
362.18	2914.00
362.65	2941.00
363.11	2950.00
363.58	3036.00
364.04	3013.00
364.51	2944.00
364.97	2956.00
365.43	2913.00
365.90	2929.00
366.36	2931.00
366.83	2965.00
367.29	2957.00
367.76	2960.00
368.22	2923.00
368.69	2930.00
369.15	2944.00
369.61	2947.00
370.08	2926.00
370.54	2951.00
371.01	2970.00
371.47	2958.00
371.94	2944.00
372.40	2944.00
372.86	2958.00
373.33	2962.00
373.79	2919.00
374.26	2933.00
374.72	2925.00
375.19	2962.00
375.65	2949.00
376.11	2952.00
376.58	2959.00
377.04	2999.00
377.51	2951.00
377.97	2938.00
378.43	2952.00
378.90	2972.00
379.36	2908.00
379.82	2959.00
380.29	2969.00
380.75	2956.00
381.22	2957.00
381.68	2941.00
382.14	2958.00
382.61	2988.00
383.07	2954.00
383.53	2929.00
384.00	2938.00
384.46	3004.00
384.93	2949.00
385.39	2975.00
385.85	2944.00
386.32	2955.00
386.78	2939.00
387.24	2962.00
387.71	2963.00
388.17	2947.00
388.63	2970.00
389.10	2950.00
389.56	3095.00
390.02	2970.00
390.49	2946.00
390.95	2979.00
391.41	2973.00
391.88	3029.00
392.34	3018.00
392.80	3004.00
393.27	3041.00
393.73	3066.00
394.19	3093.00
394.66	3140.00
395.12	3188.00
395.58	3252.00
396.05	3336.00
396.51	3355.00
396.97	3407.00
397.43	3478.00
397.90	3588.00
398.36	3910.00
398.82	4185.00
399.29	4438.00
399.75	4619.00
400.21	4841.00
400.67	5133.00
401.14	5299.00
401.60	5659.00
402.06	5824.00
402.53	6083.00
402.99	6370.00
403.45	6586.00
403.91	6665.00
404.38	6944.00
404.84	7235.00
405.30	7329.00
405.76	7494.00
406.23	7770.00
406.69	7940.00
407.15	8084.00
407.61	8398.00
408.08	8821.00
408.54	9011.00
409.00	9364.00
409.46	9807.00
409.93	9863.00
410.39	9788.00
410.85	9788.00
411.31	10182.00
411.77	10846.00
412.24	11183.00
412.70	11441.00
413.16	11465.00
413.62	11462.00
414.09	11650.00
414.55	11929.00
415.01	12185.00
415.47	12140.00
415.93	12378.00
416.40	12510.00
416.86	12496.00
417.32	12722.00
417.78	12678.00
418.24	12507.00
418.71	12619.00
419.17	12662.00
419.63	12889.00
420.09	13168.00
420.55	13058.00
421.01	13195.00
421.48	13478.00
421.94	13684.00
422.40	13549.00
422.86	13370.00
423.32	13187.00
423.78	13309.00
424.25	13664.00
424.71	13564.00
425.17	13828.00
425.63	13590.00
426.09	13692.00
426.55	13561.00
427.01	13727.00
427.48	13821.00
427.94	13541.00
428.40	13287.00
428.86	13480.00
429.32	13095.00
429.78	12749.00
430.24	12461.00
430.71	12158.00
431.17	12146.00
431.63	12498.00
432.09	13573.00
432.55	14718.00
433.01	14885.00
433.47	14481.00
433.93	14970.00
434.39	14800.00
434.86	14413.00
435.32	15045.00
435.78	15759.00
436.24	15885.00
436.70	16134.00
437.16	16272.00
437.62	15964.00
438.08	15694.00
438.54	15533.00
439.00	15549.00
439.46	15372.00
439.93	15863.00
440.39	16392.00
440.85	16482.00
441.31	16581.00
441.77	17162.00
442.23	17493.00
442.69	17644.00
443.15	17907.00
443.61	17758.00
444.07	17798.00
444.53	17863.00
444.99	17893.00
445.45	18130.00
445.91	17867.00
446.37	17809.00
446.83	17911.00
447.29	18268.00
447.75	18863.00
448.21	19092.00
448.67	19339.00
449.14	19251.00
449.60	19250.00
450.06	19742.00
450.52	19782.00
450.98	20259.00
451.44	20385.00
451.90	20184.00
452.36	19834.00
452.82	19654.00
453.28	19461.00
453.74	19326.00
454.20	19325.00
454.66	19794.00
455.12	20060.00
455.58	20142.00
456.04	20174.00
456.50	20700.00
456.96	20783.00
457.42	20890.00
457.88	20651.00
458.33	20867.00
458.79	20648.00
459.25	20348.00
459.71	20567.00
460.17	20770.00
460.63	20869.00
461.09	21149.00
461.55	21469.00
462.01	21661.00
462.47	21504.00
462.93	21587.00
463.39	21637.00
463.85	21548.00
464.31	21403.00
464.77	21364.00
465.23	21457.00
465.69	21313.00
466.15	21352.00
466.61	21541.00
467.07	21708.00
467.52	21086.00
467.98	21281.00
468.44	21889.00
468.90	21836.00
469.36	21764.00
469.82	21646.00
470.28	21713.00
470.74	21645.00
471.20	21705.00
471.66	21784.00
472.12	22317.00
472.57	22512.00
473.03	22584.00
473.49	22539.00
473.95	22404.00
474.41	22445.00
474.87	22582.00
475.33	22828.00
475.79	22655.00
476.25	22622.00
476.70	22616.00
477.16	22633.00
477.62	22908.00
478.08	23203.00
478.54	23167.00
479.00	23343.00
479.46	23398.00
479.91	23344.00
480.37	23480.00
480.83	23652.00
481.29	23909.00
481.75	23638.00
482.21	23843.00
482.67	24091.00
483.12	23793.00
483.58	23635.00
484.04	23750.00
484.50	23480.00
484.96	23169.00
485.42	22700.00
485.87	21994.00
486.33	21445.00
486.79	20995.00
487.25	21292.00
487.71	22289.00
488.16	22708.00
488.62	22826.00
489.08	23516.00
489.54	23517.00
490.00	23761.00
490.45	24144.00
490.91	24374.00
491.37	23866.00
491.83	23708.00
492.29	23638.00
492.74	23690.00
493.20	23575.00
493.66	24174.00
494.12	24510.00
494.57	24648.00
495.03	24450.00
495.49	25026.00
495.95	24842.00
496.40	24795.00
496.86	24671.00
497.32	24852.00
497.78	24624.00
498.23	24640.00
498.69	24468.00
499.15	24292.00
499.61	24216.00
500.06	24346.00
500.52	24244.00
500.98	23824.00
501.44	23577.00
501.89	23543.00
502.35	23795.00
502.81	23971.00
503.27	24042.00
503.72	24023.00
504.18	24040.00
504.64	23944.00
505.09	24143.00
505.55	24605.00
506.01	24797.00
506.47	25148.00
506.92	25017.00
507.38	24680.00
507.84	24564.00
508.29	24558.00
508.75	24763.00
509.21	24963.00
509.66	25212.00
510.12	25504.00
510.58	25222.00
511.03	25439.00
511.49	25446.00
511.95	25561.00
512.40	25651.00
512.86	25686.00
513.32	25219.00
513.77	25245.00
514.23	25085.00
514.69	25048.00
515.14	25095.00
515.60	25288.00
516.06	25045.00
516.51	24365.00
516.97	23795.00
517.43	23437.00
517.88	23035.00
518.34	23024.00
518.79	24001.00
519.25	24166.00
519.71	24351.00
520.16	25234.00
520.62	25425.00
521.08	25812.00
521.53	25824.00
521.99	25807.00
522.44	25870.00
522.90	25728.00
523.36	25681.00
523.81	25944.00
524.27	26265.00
524.72	26554.00
525.18	26781.00
525.64	26689.00
526.09	26048.00
526.55	25629.00
527.00	25243.00
527.46	24860.00
527.92	25060.00
528.37	25841.00
528.83	26774.00
529.28	27011.00
529.74	27066.00
530.19	27198.00
530.65	27268.00
531.10	27230.00
531.56	27414.00
532.02	27304.00
532.47	26931.00
532.93	26539.00
533.38	26555.00
533.84	26254.00
534.29	26980.00
534.75	27089.00
535.20	27340.00
535.66	27542.00
536.11	27741.00
536.57	27397.00
537.02	27407.00
537.48	27101.00
537.93	27295.00
538.39	27399.00
538.84	27518.00
539.30	27071.00
539.75	27018.00
540.21	26831.00
540.66	26303.00
541.12	26388.00
541.57	26459.00
542.03	26761.00
542.48	27106.00
542.94	27238.00
543.39	27167.00
543.85	27158.00
544.30	27306.00
544.76	27405.00
545.21	27723.00
545.67	27557.00
546.12	27499.00
546.58	27475.00
547.03	27513.00
547.49	27552.00
547.94	27382.00
548.40	27544.00
548.85	27365.00
549.30	27653.00
549.76	27959.00
550.21	27962.00
550.67	28080.00
551.12	27929.00
551.58	27998.00
552.03	28156.00
552.48	27910.00
552.94	27865.00
553.39	27944.00
553.85	27966.00
554.30	28056.00
554.76	28237.00
555.21	28452.00
555.66	28412.00
556.12	28296.00
556.57	28275.00
557.03	27955.00
557.48	27692.00
557.93	27691.00
558.39	27661.00
558.84	27578.00
559.30	27494.00
559.75	27181.00
560.20	27245.00
560.66	27558.00
561.11	27807.00
561.56	27871.00
562.02	28004.00
562.47	28028.00
562.92	28054.00
563.38	28033.00
563.83	27981.00
564.29	27978.00
564.74	27904.00
565.19	27953.00
565.65	27579.00
566.10	27543.00
566.55	27421.00
567.01	27420.00
567.46	27639.00
567.91	27929.00
568.37	27618.00
568.82	27302.00
569.27	27288.00
569.73	27254.00
570.18	27264.00
570.63	27155.00
571.08	26906.00
571.54	26689.00
571.99	27257.00
572.44	27355.00
572.90	27766.00
573.35	27794.00
573.80	27846.00
574.26	27910.00
574.71	27573.00
575.16	27472.00
575.61	27526.00
576.07	27423.00
576.52	27255.00
576.97	27552.00
577.42	27507.00
577.88	27561.00
578.33	27287.00
578.78	27527.00
579.24	27341.00
579.69	27727.00
580.14	27859.00
580.59	28120.00
581.05	28140.00
581.50	28325.00
581.95	28729.00
582.40	28677.00
582.85	28658.00
583.31	28946.00
583.76	29108.00
584.21	29031.00
584.66	29137.00
585.12	28847.00
585.57	28861.00
586.02	28508.00
586.47	28524.00
586.92	28494.00
587.38	28568.00
587.83	28310.00
588.28	27914.00
588.73	27101.00
589.18	25798.00
589.64	24905.00
590.09	24720.00
590.54	25337.00
590.99	26166.00
591.44	26677.00
591.90	26909.00
592.35	26768.00
592.80	27058.00
593.25	27174.00
593.70	27414.00
594.15	27249.00
594.61	27005.00
595.06	26824.00
595.51	26724.00
595.96	27050.00
596.41	27538.00
596.86	27693.00
597.31	27859.00
597.77	27860.00
598.22	27568.00
598.67	27819.00
599.12	27726.00
599.57	27801.00
600.02	28217.00
600.47	28282.00
600.92	28466.00
601.38	28176.00
601.83	28349.00
602.28	28062.00
602.73	28135.00
603.18	28602.00
603.63	28926.00
604.08	28997.00
604.53	29106.00
604.98	29193.00
605.43	29250.00
605.89	29250.00
606.34	29132.00
606.79	29379.00
607.24	29344.00
607.69	29687.00
608.14	29387.00
608.59	29287.00
609.04	29176.00
609.49	29172.00
609.94	29252.00
610.39	29039.00
610.84	28978.00
611.29	29201.00
611.74	29309.00
612.19	29419.00
612.64	29301.00
613.10	29345.00
613.55	29238.00
614.00	28797.00
614.45	29018.00
614.90	29285.00
615.35	29139.00
615.80	29253.00
616.25	29023.00
616.70	28424.00
617.15	28366.00
617.60	28569.00
618.05	28901.00
618.50	29599.00
618.95	29465.00
619.40	29624.00
619.85	29655.00
620.30	29484.00
620.75	29662.00
621.20	29847.00
621.65	29758.00
622.10	29511.00
622.55	29252.00
623.00	29158.00
623.45	29138.00
623.89	28872.00
624.34	29014.00
624.79	28761.00
625.24	28721.00
625.69	28426.00
626.14	28522.00
626.59	28770.00
627.04	28977.00
627.49	28875.00
627.94	28287.00
628.39	27653.00
628.84	27489.00
629.29	27905.00
629.74	28133.00
630.19	28256.00
630.64	28121.00
631.09	28468.00
631.53	28506.00
631.98	28528.00
632.43	28466.00
632.88	28708.00
633.33	29092.00
633.78	29204.00
634.23	29127.00
634.68	29146.00
635.13	29235.00
635.58	29758.00
636.02	29772.00
636.47	29423.00
636.92	29659.00
637.37	29869.00
637.82	30080.00
638.27	30312.00
638.72	30485.00
639.16	30511.00
639.61	30428.00
640.06	30359.00
640.51	30098.00
640.96	30103.00
641.41	29949.00
641.86	30099.00
642.30	29814.00
642.75	30297.00
643.20	30407.00
643.65	30393.00
644.10	30534.00
644.55	30217.00
644.99	30454.00
645.44	30250.00
645.89	29978.00
646.34	29637.00
646.79	29427.00
647.23	29152.00
647.68	28988.00
648.13	28511.00
648.58	28451.00
649.03	28566.00
649.47	28489.00
649.92	28296.00
650.37	28637.00
650.82	29160.00
651.27	30014.00
651.71	29594.00
652.16	28899.00
652.61	28824.00
653.06	29666.00
653.50	30043.00
653.95	30044.00
654.40	29922.00
654.85	29620.00
655.29	29179.00
655.74	28580.00
656.19	27490.00
656.64	25860.00
657.08	25585.00
657.53	26630.00
657.98	28347.00
658.43	29571.00
658.87	29676.00
659.32	30291.00
659.77	30279.00
660.21	30192.00
660.66	30391.00
661.11	30829.00
661.56	30919.00
662.00	31108.00
662.45	31227.00
662.90	31317.00
663.34	31226.00
663.79	30724.00
664.24	30919.00
664.68	30636.00
665.13	31249.00
665.58	31256.00
666.02	31404.00
666.47	31237.00
666.92	31135.00
667.36	31115.00
667.81	31077.00
668.26	31123.00
668.70	31144.00
669.15	31183.00
669.60	31253.00
670.04	31364.00
670.49	31210.00
670.94	31100.00
671.38	31204.00
671.83	31164.00
672.28	30760.00
672.72	30801.00
673.17	31058.00
673.61	31060.00
674.06	31064.00
674.51	31140.00
674.95	30970.00
675.40	31053.00
675.85	31018.00
676.29	31042.00
676.74	31053.00
677.18	31052.00
677.63	30910.00
678.07	31029.00
678.52	31106.00
678.97	30830.00
679.41	30933.00
679.86	30958.00
680.30	30873.00
680.75	30862.00
681.20	30924.00
681.64	30852.00
682.09	30909.00
682.53	30708.00
682.98	30738.00
683.42	30509.00
683.87	30796.00
684.31	30541.00
684.76	30140.00
685.20	30101.00
685.65	30236.00
686.10	30168.00
686.54	29826.00
686.99	27543.00
687.43	23283.00
687.88	20595.00
688.32	21524.00
688.77	23885.00
689.21	24989.00
689.66	24657.00
690.10	24464.00
690.55	25068.00
690.99	25451.00
691.44	26195.00
691.88	26390.00
692.33	26995.00
692.77	26924.00
693.22	26671.00
693.66	26206.00
694.11	25785.00
694.55	25439.00
695.00	25583.00
695.44	25732.00
695.88	26323.00
696.33	26447.00
696.77	27000.00
697.22	28301.00
697.66	28686.00
698.11	28648.00
698.55	28115.00
699.00	27952.00
699.44	26977.00
699.88	26700.00
700.33	26717.00
700.77	26552.00
701.22	26262.00
701.66	26583.00
702.11	26390.00
702.55	26267.00
702.99	26200.00
703.44	26453.00
703.88	27264.00
704.33	27459.00
704.77	27547.00
705.21	27817.00
705.66	27647.00
706.10	27453.00
706.54	27770.00
706.99	27602.00
707.43	27968.00
707.88	28083.00
708.32	28082.00
708.76	28064.00
709.21	27938.00
709.65	28071.00
710.09	28200.00
710.54	28331.00
710.98	28333.00
711.42	28389.00
711.87	28133.00
712.31	28223.00
712.76	28074.00
713.20	27951.00
713.64	27870.00
714.08	27967.00
714.53	28049.00
714.97	27839.00
715.41	26946.00
715.86	26743.00
716.30	26550.00
716.74	25564.00
717.19	23084.00
717.63	20597.00
718.07	19229.00
718.52	19043.00
718.96	18682.00
719.40	17990.00
719.84	17708.00
720.29	17592.00
720.73	17642.00
721.17	18545.00
721.62	20908.00
722.06	23087.00
722.50	23923.00
722.94	23785.00
723.39	23131.00
723.83	21131.00
724.27	19813.00
724.71	19413.00
725.16	19581.00
725.60	19606.00
726.04	19386.00
726.48	19858.00
726.93	19828.00
727.37	20404.00
727.81	20411.00
728.25	19264.00
728.69	20056.00
729.14	21043.00
729.58	19821.00
730.02	19675.00
730.46	20389.00
730.90	20368.00
731.35	20455.00
731.79	20589.00
732.23	21137.00
732.67	22438.00
733.11	23530.00
733.56	23918.00
734.00	24002.00
734.44	24855.00
734.88	25416.00
735.32	24686.00
735.76	24589.00
736.21	24627.00
736.65	24451.00
737.09	24343.00
737.53	24689.00
737.97	25297.00
738.41	25491.00
738.85	25161.00
739.30	24667.00
739.74	24778.00
740.18	25218.00
740.62	25578.00
741.06	25922.00
741.50	25582.00
741.94	25697.00
742.38	25893.00
742.83	25901.00
743.27	25988.00
743.71	26455.00
744.15	26313.00
744.59	26475.00
745.03	26244.00
745.47	26203.00
745.91	26744.00
746.35	26896.00
746.79	26723.00
747.23	27000.00
747.68	26963.00
748.12	26942.00
748.56	26872.00
749.00	26916.00
749.44	26728.00
749.88	26582.00
750.32	26613.00
750.76	26798.00
751.20	26810.00
751.64	26627.00
752.08	26756.00
752.52	27141.00
752.96	27008.00
753.40	26649.00
753.84	26722.00
754.28	26869.00
754.72	26899.00
755.16	26790.00
755.60	26847.00
756.04	26984.00
756.48	26771.00
756.92	26855.00
757.36	26796.00
757.80	26602.00
758.24	26379.00
758.68	26240.00
759.12	25696.00
759.56	24375.00
760.00	18517.00
760.44	10984.00
760.88	6605.00
761.32	5563.00
761.76	6838.00
762.20	10514.00
762.64	13431.00
763.08	11754.00
763.52	9947.00
763.96	9729.00
764.40	10446.00
764.84	11872.00
765.28	13284.00
765.72	15022.00
766.15	16588.00
766.59	18068.00
767.03	19697.00
767.47	21334.00
767.91	22585.00
768.35	23607.00
768.79	24066.00
769.23	24782.00
769.67	24569.00
770.11	24730.00
770.55	25053.00
770.98	25383.00
771.42	25721.00
771.86	25435.00
772.30	25718.00
772.74	25849.00
773.18	25876.00
773.62	25867.00
774.06	26129.00
774.49	25962.00
774.93	25553.00
775.37	25219.00
775.81	25173.00
776.25	25452.00
776.69	25653.00
777.13	25674.00
777.56	25696.00
778.00	25737.00
778.44	25570.00
778.88	25651.00
779.32	25473.00
779.76	25416.00
780.19	25281.00
780.63	24935.00
781.07	25089.00
781.51	24848.00
781.95	25000.00
782.38	25065.00
782.82	25456.00
783.26	25374.00
783.70	25002.00
784.14	24779.00
784.57	24923.00
785.01	24847.00
785.45	24549.00
785.89	24486.00
786.32	24315.00
786.76	24150.00
787.20	23671.00
787.64	23545.00
788.07	23627.00
788.51	23398.00
788.95	23350.00
789.39	23425.00
789.82	22804.00
790.26	22500.00
790.70	22541.00
791.14	22667.00
791.57	22346.00
792.01	22369.00
792.45	22057.00
792.88	22300.00
793.32	22108.00
793.76	22087.00
794.20	22607.00
794.63	22707.00
795.07	22712.00
795.51	22788.00
795.94	22838.00
796.38	22037.00
796.82	21251.00
797.25	21443.00
797.69	21785.00
798.13	22157.00
798.56	21986.00
799.00	22074.00
799.44	21953.00
799.87	21876.00
800.31	21570.00
800.75	21308.00
801.18	21476.00
801.62	21526.00
802.06	21421.00
802.49	21551.00
802.93	21238.00
803.37	20948.00
803.80	20980.00
804.24	21040.00
804.67	20889.00
805.11	20669.00
805.55	21143.00
805.98	21533.00
806.42	21559.00
806.85	21760.00
807.29	21820.00
807.73	21649.00
808.16	21405.00
808.60	21301.00
809.03	20865.00
809.47	20735.00
809.91	20390.00
810.34	19932.00
810.78	19967.00
811.21	19771.00
811.65	19364.00
812.08	19288.00
812.52	18873.00
812.96	18393.00
813.39	18107.00
813.83	16723.00
814.26	16400.00
814.70	16164.00
815.13	15359.00
815.57	14712.00
816.00	14709.00
816.44	14590.00
816.87	13501.00
817.31	13945.00
817.74	15010.00
818.18	14422.00
818.61	14005.00
819.05	15181.00
819.48	15213.00
819.92	15428.00
820.35	14942.00
820.79	16648.00
821.22	18018.00
821.66	17424.00
822.09	17043.00
822.53	16145.00
822.96	13998.00
823.40	11511.00
823.83	12601.00
824.27	15060.00
824.70	16279.00
825.13	17382.00
825.57	18184.00
826.00	17241.00
826.44	16683.00
826.87	17512.00
827.31	17919.00
827.74	16411.00
828.17	15273.00
828.61	15306.00
829.04	15890.00
829.48	15824.00
829.91	15654.00
830.35	16459.00
830.78	16181.00
831.21	16481.00
831.65	16775.00
832.08	16373.00
832.52	16295.00
832.95	16995.00
833.38	17000.00
833.82	16486.00
834.25	16630.00
834.68	17143.00
835.12	17656.00
835.55	17754.00
835.98	17394.00
836.42	17448.00
836.85	17630.00
837.29	18227.00
837.72	17934.00
838.15	18018.00
838.59	18442.00
839.02	18505.00
839.45	18853.00
839.89	19060.00
840.32	19071.00
840.75	19053.00
841.18	18684.00
841.62	18400.00
842.05	18354.00
842.48	18591.00
842.92	18822.00
843.35	18705.00
843.78	18724.00
844.22	18443.00
844.65	18827.00
845.08	18916.00
845.51	19317.00
845.95	19638.00
846.38	19537.00
846.81	19487.00
847.24	19173.00
847.68	19263.00
848.11	19032.00
848.54	18663.00
848.97	18654.00
849.41	18608.00
849.84	17864.00
850.27	17183.00
850.70	17662.00
851.14	18392.00
851.57	18482.00
852.00	18365.00
852.43	18677.00
852.87	18717.00
853.30	18792.00
853.73	18531.00
854.16	17089.00
854.59	15496.00
855.03	16252.00
855.46	17487.00
855.89	18118.00
856.32	18093.00
856.75	18435.00
857.18	18487.00
857.62	18582.00
858.05	18676.00
858.48	18571.00
858.91	18692.00
859.34	18649.00
859.77	18674.00
860.21	18750.00
860.64	18934.00
861.07	18930.00
861.50	18728.00
861.93	18628.00
862.36	18560.00
862.79	18452.00
863.23	18338.00
863.66	18310.00
864.09	18371.00
864.52	18539.00
864.95	18263.00
865.38	18160.00
865.81	17867.00
866.24	16662.00
866.67	15710.00
867.10	16877.00
867.54	17680.00
867.97	18063.00
868.40	18309.00
868.83	18326.00
869.26	17937.00
869.69	18132.00
870.12	18086.00
870.55	17879.00
870.98	17934.00
871.41	17730.00
871.84	17710.00
872.27	17860.00
872.70	18039.00
873.13	17801.00
873.56	17883.00
873.99	17731.00
874.42	17682.00
874.85	17853.00
875.28	17846.00
875.71	17844.00
876.14	18045.00
876.57	17883.00
877.00	17779.00
877.43	17682.00
877.86	17574.00
878.29	17417.00
878.72	17442.00
879.15	17361.00
879.58	17231.00
880.01	17409.00
880.44	17371.00
880.87	16827.00
881.30	17265.00
881.73	17645.00
882.16	17592.00
882.59	17401.00
883.02	17581.00
883.45	17704.00
883.88	17724.00
884.31	17835.00
884.74	17747.00
885.17	17418.00
885.60	17420.00
886.03	16874.00
886.46	16712.00
886.88	16691.00
887.31	16866.00
887.74	16912.00
888.17	16929.00
888.60	17177.00
889.03	17282.00
889.46	17177.00
889.89	17007.00
890.32	16975.00
890.75	17112.00
891.17	17037.00
891.60	16995.00
892.03	16770.00
892.46	16633.00
892.89	16015.00
893.32	15279.00
893.75	15363.00
894.17	15163.00
894.60	14523.00
895.03	13733.00
895.46	13070.00
895.89	13133.00
896.32	12522.00
896.74	11745.00
897.17	11897.00
897.60	11687.00
898.03	12364.00
898.46	12265.00
898.89	10033.00
899.31	9668.00
899.74	11955.00
900.17	11504.00
900.60	10855.00
901.02	10733.00
901.45	11094.00
901.88	10986.00
902.31	10997.00
902.74	11149.00
903.16	12074.00
903.59	13340.00
904.02	13758.00
904.45	13362.00
904.87	13739.00
905.30	13275.00
905.73	13434.00
906.16	12433.00
906.58	11712.00
907.01	10926.00
907.44	10792.00
907.87	10844.00
908.29	10614.00
908.72	10498.00
909.15	10505.00
909.57	10459.00
910.00	10288.00
910.43	10459.00
910.86	10389.00
911.28	11534.00
911.71	10787.00
912.14	10850.00
912.56	11039.00
912.99	9650.00
913.42	8964.00
913.84	9537.00
914.27	10613.00
914.70	10964.00
915.12	9564.00
915.55	8898.00
915.98	9928.00
916.40	10982.00
916.83	10743.00
917.26	9452.00
917.68	9275.00
918.11	10299.00
918.53	10672.00
918.96	11641.00
919.39	11249.00
919.81	11816.00
920.24	12508.00
920.66	11880.00
921.09	11451.00
921.52	11103.00
921.94	11666.00
922.37	12018.00
922.79	11419.00
923.22	11059.00
923.65	10660.00
924.07	10466.00
924.50	10515.00
924.92	10849.00
925.35	10868.00
925.77	10639.00
926.20	10544.00
926.63	10899.00
927.05	10397.00
927.48	9300.00
927.90	8238.00
928.33	7696.00
928.75	7338.00
929.18	7182.00
929.60	6625.00
930.03	6237.00
930.45	6155.00
930.88	5671.00
931.30	5285.00
931.73	4619.00
932.15	4515.00
932.58	4345.00
933.00	4285.00
933.43	3918.00
933.85	3730.00
934.28	3856.00
934.70	4307.00
935.13	4255.00
935.55	3898.00
935.98	4041.00
936.40	3918.00
936.83	3766.00
937.25	3882.00
937.68	3853.00
938.10	3959.00
938.52	4490.00
938.95	5206.00
939.37	5390.00
939.80	4932.00
940.22	4600.00
940.65	4463.00
941.07	4407.00
941.49	4468.00
941.92	4397.00
942.34	4206.00
942.77	4027.00
943.19	4448.00
943.61	4053.00
944.04	3838.00
944.46	4180.00
944.89	4391.00
945.31	4072.00
945.73	3935.00
946.16	4128.00
946.58	4173.00
947.00	4375.00
947.43	4379.00
947.85	4204.00
948.27	4471.00
948.70	4883.00
949.12	4396.00
949.54	4013.00
949.97	4301.00
950.39	4999.00
950.81	5250.00
951.24	4698.00
951.66	4124.00
952.08	4132.00
952.51	4448.00
952.93	4968.00
953.35	5125.00
953.78	4887.00
954.20	4589.00
954.62	4882.00
955.04	4817.00
955.47	4856.00
955.89	4991.00
956.31	4729.00
956.74	5235.00
957.16	6051.00
957.58	5663.00
958.00	5593.00
958.43	5082.00
958.85	4827.00
959.27	5120.00
959.69	5661.00
960.12	5632.00
960.54	5978.00
960.96	6329.00
961.38	6095.00
961.80	5665.00
962.23	5862.00
962.65	6741.00
963.07	6557.00
963.49	6376.00
963.91	6469.00
964.34	6535.00
964.76	6656.00
965.18	6818.00
965.60	6508.00
966.02	6306.00
966.45	6991.00
966.87	8143.00
967.29	8527.00
967.71	8081.00
968.13	8454.00
968.55	8661.00
968.98	8753.00
969.40	8602.00
969.82	8785.00
970.24	9103.00
970.66	9063.00
971.08	8847.00
971.50	8965.00
971.92	8470.00
972.35	8311.00
972.77	8222.00
973.19	7737.00
973.61	7934.00
974.03	8045.00
974.45	8140.00
974.87	7871.00
975.29	7663.00
975.71	7698.00
976.13	8289.00
976.56	8701.00
976.98	8589.00
977.40	8358.00
977.82	8340.00
978.24	8459.00
978.66	8160.00
979.08	8554.00
979.50	8473.00
979.92	8851.00
980.34	9224.00
980.76	9212.00
981.18	9175.00
981.60	9031.00
982.02	8935.00
982.44	9171.00
982.86	9417.00
983.28	9592.00
983.70	9228.00
984.12	9276.00
984.54	9435.00
984.96	9454.00
985.38	9646.00
985.80	9532.00
986.22	9452.00
986.64	9245.00
987.06	9434.00
987.48	9515.00
987.90	9637.00
988.32	9670.00
988.74	9665.00
989.16	9622.00
989.58	9597.00
990.00	9631.00
990.42	9639.00
990.84	9613.00
991.26	9686.00
991.67	9545.00
992.09	9470.00
992.51	9581.00
992.93	9679.00
993.35	9580.00
993.77	9608.00
994.19	9563.00
994.61	9424.00
995.03	9503.00
995.45	9489.00
995.87	9569.00
996.28	9450.00
996.70	9554.00
997.12	9546.00
997.54	9633.00
997.96	9653.00
998.38	9680.00
998.80	9696.00
999.21	9726.00
999.63	9743.00
1000.05	9740.00
1000.47	9686.00
1000.89	9562.00
1001.31	9559.00
1001.72	9516.00
1002.14	9689.00
1002.56	9585.00
1002.98	9513.00
1003.40	9453.00
1003.82	9400.00
1004.23	9376.00
1004.65	9369.00
1005.07	9495.00
1005.49	9363.00
1005.90	9406.00
1006.32	9342.00
1006.74	9241.00
1007.16	9285.00
1007.58	9232.00
1007.99	9100.00
1008.41	9010.00
1008.83	9258.00
1009.25	9145.00
1009.66	9136.00
1010.08	9151.00
1010.50	9173.00
1010.92	9150.00
1011.33	9126.00
1011.75	9044.00
1012.17	9024.00
1012.58	9062.00
1013.00	8949.00
1013.42	8818.00
1013.84	8766.00
1014.25	8685.00
1014.67	8668.00
1015.09	8748.00
1015.50	8577.00
1015.92	8518.00
1016.34	8522.00
1016.75	8444.00
1017.17	8580.00
1017.59	8348.00
1018.00	8160.00
1018.42	8212.00
1018.84	8189.00
1019.25	8152.00
1019.67	8119.00
1020.09	8045.00
1020.50	7970.00
1020.92	8013.00
1021.33	7953.00
1021.75	7987.00
1022.17	7907.00
1022.58	7849.00
1023.00	7837.00
1023.42	7849.00
1023.83	7773.00
1024.25	7756.00
1024.66	7689.00
1025.08	7655.00
1025.50	7617.00
1025.91	7498.00
1026.33	7559.00
1026.74	7465.00
1027.16	7486.00
1027.57	7340.00
1027.99	7353.00
1028.40	7376.00
1028.82	7263.00
1029.24	7268.00
1029.65	7189.00
1030.07	7269.00
1030.48	7086.00
1030.90	7125.00
1031.31	6995.00
1031.73	6867.00
1032.14	6905.00
1032.56	6820.00
1032.97	6878.00
1033.39	6799.00
1033.80	6787.00
1034.22	6745.00
1034.63	6756.00
1035.05	6671.00
1035.46	6685.00
1035.88	6690.00
1036.29	6614.00
1036.71	6535.00
1037.12	6537.00
1037.54	6515.00
1037.95	6355.00
1038.36	6612.00
1038.78	6366.00
1039.19	6389.00
1039.61	6246.00
1040.02	6333.00
1040.44	6248.00
1040.85	6225.00
1041.27	6096.00
1041.68	6079.00
1042.09	6057.00
1042.51	6012.00
1042.92	5976.00
1043.34	5969.00
1043.75	5834.00
1044.16	5933.00
1044.58	5818.00
1044.99	5816.00
1045.40	5713.00
1045.82	5766.00
1046.23	5700.00
1046.65	5681.00
1047.06	5631.00
1047.47	5568.00
1047.89	5678.00
1048.30	5570.00
1048.71	5512.00
1049.13	5480.00
1049.54	5412.00
1049.95	5348.00
1050.37	5339.00
1050.78	5428.00
1051.19	5310.00
1051.61	5296.00
1052.02	5254.00
1052.43	5216.00
1052.85	5292.00
1053.26	5189.00
1053.67	5169.00
1054.08	5102.00
1054.50	5035.00
1054.91	5116.00
1055.32	5028.00
1055.74	4963.00
1056.15	4922.00
1056.56	4862.00
1056.97	4856.00
1057.39	4841.00
1057.80	4856.00
1058.21	4707.00
1058.62	4752.00
1059.03	4709.00
1059.45	4759.00
1059.86	4730.00
1060.27	4709.00
1060.68	4605.00
1061.10	4657.00
1061.51	4600.00
1061.92	4563.00
1062.33	4525.00
1062.74	4524.00
1063.16	4499.00
1063.57	4504.00
1063.98	4453.00
1064.39	4433.00
1064.80	4422.00
1065.21	4401.00
1065.63	4403.00
1066.04	4407.00
1066.45	4289.00
1066.86	4310.00
1067.27	4315.00
1067.68	4252.00
1068.10	4237.00
1068.51	4229.00
1068.92	4207.00
1069.33	4154.00
1069.74	4181.00
1070.15	4123.00
1070.56	4094.00
1070.97	4085.00
1071.38	4161.00
1071.80	4031.00
1072.21	4060.00
1072.62	4006.00
1073.03	3992.00
1073.44	4002.00
1073.85	4004.00
1074.26	4021.00
1074.67	3982.00
1075.08	3963.00
1075.49	3954.00
1075.90	3884.00
1076.31	3847.00
1076.72	3869.00
1077.13	3805.00
1077.54	3869.00
1077.95	3771.00
1078.36	3842.00
1078.77	3800.00
1079.19	3801.00
1079.60	3789.00
1080.01	3785.00
1080.42	3774.00
1080.83	3689.00
1081.24	3706.00
1081.65	3691.00
1082.05	3667.00
1082.46	3637.00
1082.87	3662.00
1083.28	3654.00
1083.69	3658.00
1084.10	3590.00
1084.51	3585.00
1084.92	3566.00
1085.33	3567.00
1085.74	3553.00
1086.15	3971.00
1086.56	3507.00
1086.97	3505.00
1087.38	3518.00
1087.79	3531.00
1088.20	3507.00
1088.61	3478.00
1089.02	3460.00
1089.42	3462.00
1089.83	3395.00
1090.24	3470.00
1090.65	3415.00
1091.06	3414.00
1091.47	3400.00
1091.88	3401.00
1092.29	3348.00
1092.70	3375.00
1093.10	3350.00
1093.51	3350.00
1093.92	3313.00
1094.33	3317.00
1094.74	3278.00
1095.15	3245.00
1095.55	3263.00
1095.96	3241.00
1096.37	3205.00
1096.78	3204.00
1097.19	3180.00
1097.60	3209.00
1098.00	3178.00
1098.41	3122.00
1098.82	3171.00
1099.23	3150.00
1099.64	3127.00
1100.04	3143.00
1100.45	3139.00
1100.86	3167.00
1101.27	3102.00
1101.67	3117.00
1102.08	3067.00
1102.49	3079.00
1102.90	3072.00
1103.31	3040.00
1103.71	3033.00
1104.12	3058.00
1104.53	3033.00
1104.93	3003.00
1105.34	3033.00
1105.75	3003.00
1106.16	3015.00
1106.56	2990.00
1106.97	2987.00
1107.38	2994.00
1107.78	2994.00
1108.19	2989.00
1108.60	2981.00
1109.01	2973.00
1109.41	2984.00
1109.82	2979.00
1110.23	2983.00
1110.63	2951.00
1111.04	2937.00
1111.45	2939.00
1111.85	2935.00
1112.26	2939.00
1112.67	2945.00
1113.07	2953.00
1113.48	2897.00
1113.88	2902.00
1114.29	2885.00
1114.70	2592.00
1115.10	2601.00
1115.51	2601.00
1115.92	2602.00
>>>>>End Processed Spectral Data<<<<<
