SpectraSuite Data File
++++++++++++++++++++++++++++++++++++
Date: Sat Jun 19 14:44:54 EEST 2021
User: CanSEE
Dark Spectrum Present: No
Reference Spectrum Present: No
Number of Sampled Component Spectra: 1
Spectrometers: MAYP112785
Integration Time (usec): 100000 (MAYP112785)
Spectra Averaged: 1 (MAYP112785)
Boxcar Smoothing: 0 (MAYP112785)
Correct for Electrical Dark: No (MAYP112785)
Strobe/Lamp Enabled: No (MAYP112785)
Correct for Detector Non-linearity: No (MAYP112785)
Correct for Stray Light: No (MAYP112785)
Number of Pixels in Processed Spectrum: 2068
>>>>>Begin Processed Spectral Data<<<<<
198.35	3566.00
198.82	2507.00
199.30	2608.00
199.77	2597.00
200.24	2830.00
200.71	2827.00
201.18	2856.00
201.65	2905.00
202.13	2915.00
202.60	2882.00
203.07	2905.00
203.54	2910.00
204.01	2920.00
204.48	2942.00
204.96	2906.00
205.43	2937.00
205.90	2930.00
206.37	2937.00
206.84	2901.00
207.31	2905.00
207.78	2911.00
208.26	2912.00
208.73	2918.00
209.20	2932.00
209.67	2939.00
210.14	2913.00
210.61	2881.00
211.08	2924.00
211.56	2925.00
212.03	2926.00
212.50	2925.00
212.97	2922.00
213.44	2915.00
213.91	2895.00
214.38	2937.00
214.85	2920.00
215.33	2905.00
215.80	2939.00
216.27	2910.00
216.74	2912.00
217.21	2926.00
217.68	2943.00
218.15	2893.00
218.62	2921.00
219.09	2880.00
219.57	2907.00
220.04	2925.00
220.51	2911.00
220.98	2932.00
221.45	2931.00
221.92	2944.00
222.39	2931.00
222.86	2910.00
223.33	2915.00
223.80	2939.00
224.27	2921.00
224.74	2923.00
225.22	2922.00
225.69	2921.00
226.16	2946.00
226.63	2930.00
227.10	2935.00
227.57	2947.00
228.04	2928.00
228.51	2927.00
228.98	2967.00
229.45	2928.00
229.92	2911.00
230.39	2924.00
230.86	2907.00
231.33	2939.00
231.80	2917.00
232.27	2914.00
232.75	2930.00
233.22	2875.00
233.69	2929.00
234.16	2941.00
234.63	2961.00
235.10	2925.00
235.57	2919.00
236.04	2916.00
236.51	2935.00
236.98	2928.00
237.45	2920.00
237.92	2944.00
238.39	2905.00
238.86	2948.00
239.33	4100.00
239.80	2905.00
240.27	2966.00
240.74	2962.00
241.21	2951.00
241.68	2913.00
242.15	2939.00
242.62	2922.00
243.09	2937.00
243.56	2941.00
244.03	2944.00
244.50	2938.00
244.97	2936.00
245.44	3211.00
245.91	2934.00
246.38	2912.00
246.85	2926.00
247.32	2939.00
247.79	2938.00
248.26	2973.00
248.73	2932.00
249.20	2946.00
249.67	2924.00
250.14	2954.00
250.61	2939.00
251.08	2949.00
251.55	2950.00
252.02	2932.00
252.49	2930.00
252.96	2921.00
253.43	2912.00
253.90	2938.00
254.37	2941.00
254.84	2965.00
255.31	2896.00
255.77	2958.00
256.24	2907.00
256.71	2924.00
257.18	2946.00
257.65	2936.00
258.12	2932.00
258.59	2970.00
259.06	2960.00
259.53	2975.00
260.00	2961.00
260.47	2945.00
260.94	2958.00
261.41	2960.00
261.88	2941.00
262.35	2932.00
262.81	2932.00
263.28	2927.00
263.75	2953.00
264.22	2929.00
264.69	3021.00
265.16	2933.00
265.63	2941.00
266.10	2931.00
266.57	2925.00
267.04	2954.00
267.51	2937.00
267.97	2954.00
268.44	2946.00
268.91	2908.00
269.38	2941.00
269.85	2953.00
270.32	2934.00
270.79	2939.00
271.26	2960.00
271.73	2933.00
272.19	2952.00
272.66	2924.00
273.13	2928.00
273.60	2952.00
274.07	2955.00
274.54	2972.00
275.01	2946.00
275.48	2943.00
275.94	2903.00
276.41	2953.00
276.88	2941.00
277.35	2919.00
277.82	2917.00
278.29	2961.00
278.76	2929.00
279.22	2940.00
279.69	2915.00
280.16	3005.00
280.63	2922.00
281.10	2926.00
281.57	2919.00
282.04	2930.00
282.50	2929.00
282.97	2942.00
283.44	2927.00
283.91	2919.00
284.38	2933.00
284.85	2913.00
285.31	2924.00
285.78	2931.00
286.25	2887.00
286.72	2951.00
287.19	2930.00
287.65	2935.00
288.12	2919.00
288.59	2928.00
289.06	2923.00
289.53	2939.00
289.99	2929.00
290.46	2934.00
290.93	2926.00
291.40	2929.00
291.87	2921.00
292.33	2916.00
292.80	2901.00
293.27	2905.00
293.74	2899.00
294.21	2929.00
294.67	2904.00
295.14	2915.00
295.61	2906.00
296.08	2941.00
296.54	2930.00
297.01	2935.00
297.48	2980.00
297.95	2905.00
298.42	2958.00
298.88	2909.00
299.35	2938.00
299.82	2938.00
300.29	2921.00
300.75	2899.00
301.22	2922.00
301.69	2957.00
302.16	2924.00
302.62	2903.00
303.09	2924.00
303.56	2948.00
304.03	2926.00
304.49	2921.00
304.96	2934.00
305.43	2917.00
305.90	2916.00
306.36	2937.00
306.83	2942.00
307.30	2925.00
307.76	2926.00
308.23	2920.00
308.70	2925.00
309.17	2931.00
309.63	2908.00
310.10	2923.00
310.57	2912.00
311.03	2915.00
311.50	2920.00
311.97	2933.00
312.44	2907.00
312.90	2911.00
313.37	2926.00
313.84	2942.00
314.30	2885.00
314.77	2950.00
315.24	2912.00
315.70	2927.00
316.17	2919.00
316.64	2936.00
317.10	2926.00
317.57	2938.00
318.04	2921.00
318.50	2900.00
318.97	2915.00
319.44	2912.00
319.90	2909.00
320.37	2912.00
320.84	2910.00
321.30	2918.00
321.77	2901.00
322.24	2888.00
322.70	2918.00
323.17	2913.00
323.64	2900.00
324.10	2905.00
324.57	2899.00
325.04	2910.00
325.50	2921.00
325.97	2904.00
326.44	2914.00
326.90	2938.00
327.37	2894.00
327.84	2928.00
328.30	2905.00
328.77	2907.00
329.23	2907.00
329.70	2932.00
330.17	2923.00
330.63	2913.00
331.10	2907.00
331.56	2897.00
332.03	2890.00
332.50	2900.00
332.96	2921.00
333.43	2899.00
333.90	2906.00
334.36	2907.00
334.83	2923.00
335.29	2934.00
335.76	2890.00
336.22	2912.00
336.69	2937.00
337.16	2886.00
337.62	2925.00
338.09	2882.00
338.55	2895.00
339.02	2905.00
339.49	2893.00
339.95	2930.00
340.42	2883.00
340.88	2925.00
341.35	2912.00
341.81	2943.00
342.28	2917.00
342.75	2912.00
343.21	2896.00
343.68	2913.00
344.14	2925.00
344.61	2925.00
345.07	2901.00
345.54	2908.00
346.00	2932.00
346.47	2912.00
346.93	2883.00
347.40	2908.00
347.87	2899.00
348.33	2915.00
348.80	2913.00
349.26	2893.00
349.73	2945.00
350.19	2870.00
350.66	2904.00
351.12	2926.00
351.59	2908.00
352.05	2932.00
352.52	2915.00
352.98	2911.00
353.45	2900.00
353.91	2901.00
354.38	2902.00
354.84	2874.00
355.31	2901.00
355.77	2933.00
356.24	2924.00
356.70	2938.00
357.17	2911.00
357.63	2920.00
358.10	2903.00
358.56	2973.00
359.03	2900.00
359.49	2956.00
359.96	2903.00
360.42	2903.00
360.89	2900.00
361.35	2920.00
361.82	2880.00
362.28	2910.00
362.75	2905.00
363.21	2950.00
363.67	2947.00
364.14	2899.00
364.60	2917.00
365.07	2900.00
365.53	2880.00
366.00	2881.00
366.46	2928.00
366.93	2915.00
367.39	2901.00
367.86	2885.00
368.32	2888.00
368.78	2930.00
369.25	2895.00
369.71	2886.00
370.18	2903.00
370.64	2913.00
371.11	2916.00
371.57	2901.00
372.03	2878.00
372.50	2900.00
372.96	2991.00
373.43	2884.00
373.89	2896.00
374.35	2877.00
374.82	2904.00
375.28	2931.00
375.75	2906.00
376.21	2941.00
376.67	2943.00
377.14	2902.00
377.60	2889.00
378.07	2919.00
378.53	2927.00
378.99	2883.00
379.46	2895.00
379.92	2928.00
380.39	2915.00
380.85	2903.00
381.31	2895.00
381.78	2915.00
382.24	2950.00
382.70	2931.00
383.17	2894.00
383.63	2909.00
384.09	2940.00
384.56	2923.00
385.02	2922.00
385.48	2903.00
385.95	2911.00
386.41	2919.00
386.88	2915.00
387.34	2955.00
387.80	2935.00
388.27	2918.00
388.73	2910.00
389.19	3051.00
389.66	2917.00
390.12	2939.00
390.58	2961.00
391.05	2957.00
391.51	2976.00
391.97	3024.00
392.43	3023.00
392.90	3074.00
393.36	3068.00
393.82	3157.00
394.29	3259.00
394.75	3333.00
395.21	3460.00
395.68	3568.00
396.14	3659.00
396.60	3765.00
397.07	3879.00
397.53	4127.00
397.99	4748.00
398.45	5210.00
398.92	5550.00
399.38	6013.00
399.84	6398.00
400.31	6784.00
400.77	7134.00
401.23	7604.00
401.69	8147.00
402.16	8470.00
402.62	8897.00
403.08	9168.00
403.54	9435.00
404.01	9875.00
404.47	10233.00
404.93	10410.00
405.39	10721.00
405.86	11201.00
406.32	11418.00
406.78	11794.00
407.24	12233.00
407.71	12736.00
408.17	13168.00
408.63	13747.00
409.09	14403.00
409.56	14589.00
410.02	14421.00
410.48	14367.00
410.94	15157.00
411.40	16051.00
411.87	16600.00
412.33	16944.00
412.79	17040.00
413.25	17202.00
413.71	17438.00
414.18	17763.00
414.64	18013.00
415.10	18105.00
415.56	18330.00
416.02	18412.00
416.49	18861.00
416.95	18974.00
417.41	18682.00
417.87	18525.00
418.33	18897.00
418.80	18967.00
419.26	19126.00
419.72	19499.00
420.18	19485.00
420.64	19500.00
421.10	20232.00
421.57	20393.00
422.03	20040.00
422.49	20037.00
422.95	19569.00
423.41	19796.00
423.87	20234.00
424.34	20173.00
424.80	20548.00
425.26	20331.00
425.72	20128.00
426.18	20264.00
426.64	20224.00
427.10	20460.00
427.57	19694.00
428.03	19766.00
428.49	19950.00
428.95	19332.00
429.41	18449.00
429.87	18083.00
430.33	17617.00
430.79	17817.00
431.26	18465.00
431.72	20183.00
432.18	22112.00
432.64	22059.00
433.10	21337.00
433.56	22229.00
434.02	22104.00
434.48	21438.00
434.94	22376.00
435.40	23590.00
435.87	23609.00
436.33	24061.00
436.79	24191.00
437.25	23653.00
437.71	23217.00
438.17	22931.00
438.63	22811.00
439.09	22567.00
439.55	23577.00
440.01	24354.00
440.47	24465.00
440.93	24626.00
441.39	25418.00
441.85	26051.00
442.32	26084.00
442.78	26467.00
443.24	26556.00
443.70	26447.00
444.16	26657.00
444.62	26723.00
445.08	27046.00
445.54	26811.00
446.00	26415.00
446.46	26607.00
446.92	27295.00
447.38	28101.00
447.84	28642.00
448.30	28761.00
448.76	28605.00
449.22	29039.00
449.68	29306.00
450.14	29781.00
450.60	30090.00
451.06	30520.00
451.52	30138.00
451.98	29571.00
452.44	29160.00
452.90	28934.00
453.36	28578.00
453.82	28907.00
454.28	29652.00
454.74	29995.00
455.20	30097.00
455.66	29951.00
456.12	30392.00
456.58	31271.00
457.04	30913.00
457.50	30878.00
457.96	31104.00
458.42	30606.00
458.88	30329.00
459.34	30654.00
459.80	31098.00
460.26	31203.00
460.72	31416.00
461.18	31808.00
461.64	32100.00
462.10	32105.00
462.55	32309.00
463.01	32263.00
463.47	32141.00
463.93	31868.00
464.39	31805.00
464.85	31486.00
465.31	31616.00
465.77	31366.00
466.23	31827.00
466.69	31973.00
467.15	31442.00
467.61	31769.00
468.07	32115.00
468.52	32249.00
468.98	32169.00
469.44	32188.00
469.90	31953.00
470.36	31890.00
470.82	32013.00
471.28	32588.00
471.74	32821.00
472.20	33254.00
472.66	33523.00
473.11	33272.00
473.57	33057.00
474.03	33307.00
474.49	33641.00
474.95	33896.00
475.41	33825.00
475.87	33537.00
476.33	33398.00
476.78	33903.00
477.24	34083.00
477.70	34457.00
478.16	34659.00
478.62	34897.00
479.08	34729.00
479.54	34832.00
479.99	35160.00
480.45	35218.00
480.91	35241.00
481.37	35386.00
481.83	35423.00
482.29	35499.00
482.74	35245.00
483.20	34945.00
483.66	35070.00
484.12	34713.00
484.58	34176.00
485.04	33228.00
485.49	32142.00
485.95	31407.00
486.41	30621.00
486.87	31024.00
487.33	32630.00
487.78	33476.00
488.24	33970.00
488.70	34659.00
489.16	34729.00
489.62	34859.00
490.07	35661.00
490.53	35662.00
490.99	35328.00
491.45	34772.00
491.90	34560.00
492.36	34746.00
492.82	34847.00
493.28	35403.00
493.74	35962.00
494.19	35968.00
494.65	36220.00
495.11	36655.00
495.57	36478.00
496.02	36440.00
496.48	36185.00
496.94	36488.00
497.40	36201.00
497.85	35884.00
498.31	35892.00
498.77	35463.00
499.23	35621.00
499.68	35845.00
500.14	35548.00
500.60	34918.00
501.06	34377.00
501.51	34744.00
501.97	34881.00
502.43	35110.00
502.88	35401.00
503.34	35699.00
503.80	35699.00
504.26	35665.00
504.71	35579.00
505.17	36445.00
505.63	37077.00
506.08	37213.00
506.54	37088.00
507.00	36775.00
507.45	36221.00
507.91	36284.00
508.37	36828.00
508.82	36811.00
509.28	37170.00
509.74	37334.00
510.19	37300.00
510.65	36959.00
511.11	37857.00
511.56	37648.00
512.02	37567.00
512.48	37524.00
512.93	36975.00
513.39	36748.00
513.85	36669.00
514.30	36619.00
514.76	36597.00
515.22	37060.00
515.67	36657.00
516.13	35628.00
516.59	34612.00
517.04	34091.00
517.50	33530.00
517.95	33860.00
518.41	35377.00
518.87	35160.00
519.32	35989.00
519.78	37151.00
520.24	37124.00
520.69	37637.00
521.15	37486.00
521.60	37960.00
522.06	37831.00
522.52	37831.00
522.97	38049.00
523.43	37913.00
523.88	38578.00
524.34	39391.00
524.80	39271.00
525.25	39100.00
525.71	38255.00
526.16	37432.00
526.62	36774.00
527.07	36411.00
527.53	36938.00
527.99	38259.00
528.44	39451.00
528.90	39771.00
529.35	40417.00
529.81	40120.00
530.26	40020.00
530.72	40390.00
531.17	40692.00
531.63	40300.00
532.09	39581.00
532.54	39014.00
533.00	39033.00
533.45	38861.00
533.91	39564.00
534.36	40012.00
534.82	40360.00
535.27	40534.00
535.73	40632.00
536.18	40753.00
536.64	40106.00
537.09	39819.00
537.55	39846.00
538.00	40375.00
538.46	40582.00
538.91	40228.00
539.37	39670.00
539.82	39020.00
540.28	38723.00
540.73	38801.00
541.19	39055.00
541.64	39706.00
542.10	39822.00
542.55	40109.00
543.01	40038.00
543.46	40201.00
543.92	40529.00
544.37	40680.00
544.83	40782.00
545.28	40729.00
545.74	40936.00
546.19	40917.00
546.64	40960.00
547.10	40704.00
547.55	40480.00
548.01	40530.00
548.46	40740.00
548.92	40978.00
549.37	41466.00
549.83	41191.00
550.28	41077.00
550.73	41047.00
551.19	41225.00
551.64	41460.00
552.10	41342.00
552.55	41177.00
553.00	41241.00
553.46	41168.00
553.91	41413.00
554.37	41791.00
554.82	41793.00
555.28	41751.00
555.73	41761.00
556.18	41465.00
556.64	41012.00
557.09	40851.00
557.54	41078.00
558.00	40537.00
558.45	40595.00
558.91	40156.00
559.36	39952.00
559.81	40091.00
560.27	40834.00
560.72	41121.00
561.17	41182.00
561.63	41470.00
562.08	41247.00
562.54	41389.00
562.99	41584.00
563.44	41458.00
563.90	41435.00
564.35	41177.00
564.80	41127.00
565.26	40925.00
565.71	40697.00
566.16	40552.00
566.62	40792.00
567.07	41375.00
567.52	41425.00
567.98	41352.00
568.43	41121.00
568.88	40937.00
569.34	41045.00
569.79	41060.00
570.24	40686.00
570.69	40265.00
571.15	40410.00
571.60	40797.00
572.05	41492.00
572.51	41941.00
572.96	41999.00
573.41	42101.00
573.86	41837.00
574.32	41864.00
574.77	41472.00
575.22	41172.00
575.68	41155.00
576.13	41347.00
576.58	41521.00
577.03	41643.00
577.49	41767.00
577.94	41339.00
578.39	41055.00
578.84	41168.00
579.30	41385.00
579.75	41800.00
580.20	42068.00
580.65	41965.00
581.11	42045.00
581.56	42459.00
582.01	42757.00
582.46	42717.00
582.92	43044.00
583.37	43123.00
583.82	43060.00
584.27	42859.00
584.72	42720.00
585.18	42338.00
585.63	42001.00
586.08	41763.00
586.53	42114.00
586.98	42442.00
587.44	42451.00
587.89	42106.00
588.34	40925.00
588.79	39330.00
589.24	38003.00
589.70	38050.00
590.15	39371.00
590.60	40383.00
591.05	41063.00
591.50	41124.00
591.96	41218.00
592.41	41245.00
592.86	41321.00
593.31	41661.00
593.76	41504.00
594.21	41074.00
594.66	41051.00
595.12	41122.00
595.57	41270.00
596.02	41729.00
596.47	41887.00
596.92	41938.00
597.37	41902.00
597.82	41864.00
598.28	41591.00
598.73	41486.00
599.18	41697.00
599.63	41832.00
600.08	41963.00
600.53	41758.00
600.98	41902.00
601.43	41645.00
601.88	41659.00
602.34	41499.00
602.79	41845.00
603.24	42381.00
603.69	42877.00
604.14	43035.00
604.59	42918.00
605.04	42905.00
605.49	42731.00
605.94	42978.00
606.39	42948.00
606.84	42968.00
607.30	43199.00
607.75	42936.00
608.20	42781.00
608.65	42555.00
609.10	42435.00
609.55	42668.00
610.00	42532.00
610.45	42571.00
610.90	42725.00
611.35	42718.00
611.80	42810.00
612.25	42479.00
612.70	42632.00
613.15	42318.00
613.60	42230.00
614.05	42043.00
614.50	42145.00
614.95	42682.00
615.40	42542.00
615.85	41787.00
616.30	41047.00
616.75	40984.00
617.20	41505.00
617.65	42060.00
618.10	42568.00
618.55	42844.00
619.00	42686.00
619.45	42605.00
619.90	43026.00
620.35	42990.00
620.80	43048.00
621.25	42967.00
621.70	42576.00
622.15	42695.00
622.60	42513.00
623.05	42212.00
623.50	42158.00
623.95	41958.00
624.40	41713.00
624.85	41640.00
625.30	41454.00
625.75	41543.00
626.20	41828.00
626.65	42115.00
627.10	42281.00
627.55	41727.00
627.99	41026.00
628.44	41245.00
628.89	41686.00
629.34	41656.00
629.79	41564.00
630.24	41331.00
630.69	41832.00
631.14	41603.00
631.59	41850.00
632.04	41592.00
632.49	42298.00
632.94	42240.00
633.38	42334.00
633.83	42004.00
634.28	42116.00
634.73	42485.00
635.18	42685.00
635.63	43050.00
636.08	42678.00
636.53	42654.00
636.97	43138.00
637.42	43276.00
637.87	43735.00
638.32	43396.00
638.77	43613.00
639.22	43466.00
639.67	43307.00
640.11	42998.00
640.56	42957.00
641.01	42680.00
641.46	42887.00
641.91	42899.00
642.36	43230.00
642.81	43288.00
643.25	43254.00
643.70	43407.00
644.15	43263.00
644.60	43413.00
645.05	43261.00
645.49	42882.00
645.94	42519.00
646.39	42543.00
646.84	42216.00
647.29	42058.00
647.73	42059.00
648.18	42129.00
648.63	42138.00
649.08	41859.00
649.53	41086.00
649.97	41269.00
650.42	42318.00
650.87	43048.00
651.32	42752.00
651.77	42153.00
652.21	42158.00
652.66	42743.00
653.11	42985.00
653.56	42873.00
654.00	42975.00
654.45	42535.00
654.90	41909.00
655.35	41130.00
655.79	39189.00
656.24	36540.00
656.69	36373.00
657.14	37812.00
657.58	40448.00
658.03	41660.00
658.48	42311.00
658.92	42642.00
659.37	42276.00
659.82	42772.00
660.27	42897.00
660.71	43096.00
661.16	43387.00
661.61	43340.00
662.05	43666.00
662.50	43660.00
662.95	43445.00
663.39	42920.00
663.84	43020.00
664.29	43176.00
664.74	43446.00
665.18	43499.00
665.63	43684.00
666.08	43449.00
666.52	43275.00
666.97	43199.00
667.42	43222.00
667.86	43217.00
668.31	43416.00
668.76	43452.00
669.20	43668.00
669.65	43414.00
670.09	43124.00
670.54	43125.00
670.99	42860.00
671.43	42816.00
671.88	42744.00
672.33	42494.00
672.77	43109.00
673.22	43136.00
673.66	43024.00
674.11	43104.00
674.56	42769.00
675.00	42744.00
675.45	43022.00
675.90	43074.00
676.34	43002.00
676.79	42856.00
677.23	42988.00
677.68	42900.00
678.12	42841.00
678.57	42701.00
679.02	42740.00
679.46	42802.00
679.91	42616.00
680.35	42516.00
680.80	42645.00
681.25	42454.00
681.69	42625.00
682.14	42325.00
682.58	42642.00
683.03	42292.00
683.47	42383.00
683.92	41781.00
684.36	41648.00
684.81	41681.00
685.25	41724.00
685.70	41654.00
686.15	40949.00
686.59	38937.00
687.04	33983.00
687.48	31631.00
687.93	32985.00
688.37	35762.00
688.82	36520.00
689.26	36421.00
689.71	36272.00
690.15	36654.00
690.60	37199.00
691.04	37885.00
691.49	38284.00
691.93	38602.00
692.38	38791.00
692.82	38875.00
693.27	38483.00
693.71	38212.00
694.16	37947.00
694.60	37777.00
695.04	38342.00
695.49	38721.00
695.93	38553.00
696.38	39071.00
696.82	40209.00
697.27	40677.00
697.71	40135.00
698.16	39608.00
698.60	39416.00
699.04	38993.00
699.49	38748.00
699.93	38698.00
700.38	38633.00
700.82	38183.00
701.27	38566.00
701.71	38209.00
702.15	38307.00
702.60	38045.00
703.04	38450.00
703.49	38977.00
703.93	38942.00
704.37	39309.00
704.82	39616.00
705.26	39466.00
705.71	39233.00
706.15	39342.00
706.59	39400.00
707.04	39451.00
707.48	39520.00
707.93	39610.00
708.37	39598.00
708.81	39440.00
709.26	39558.00
709.70	39646.00
710.14	39596.00
710.59	39796.00
711.03	39626.00
711.47	39336.00
711.92	39342.00
712.36	39431.00
712.80	39076.00
713.25	39145.00
713.69	39317.00
714.13	39220.00
714.58	38888.00
715.02	38509.00
715.46	38185.00
715.91	38034.00
716.35	37017.00
716.79	35005.00
717.24	32794.00
717.68	31190.00
718.12	30731.00
718.57	29853.00
719.01	29171.00
719.45	28962.00
719.89	29332.00
720.34	29093.00
720.78	30144.00
721.22	32403.00
721.66	34590.00
722.11	35427.00
722.55	35192.00
722.99	34576.00
723.44	32420.00
723.88	31203.00
724.32	30878.00
724.76	31146.00
725.21	31031.00
725.65	31224.00
726.09	31634.00
726.53	31700.00
726.97	32275.00
727.42	32244.00
727.86	30923.00
728.30	31885.00
728.74	32478.00
729.19	31317.00
729.63	31141.00
730.07	32404.00
730.51	32171.00
730.95	32301.00
731.40	32655.00
731.84	32852.00
732.28	34253.00
732.72	35198.00
733.16	35353.00
733.61	35490.00
734.05	36362.00
734.49	36518.00
734.93	35927.00
735.37	35945.00
735.81	35994.00
736.26	35793.00
736.70	35895.00
737.14	35620.00
737.58	36329.00
738.02	36395.00
738.46	35919.00
738.90	35478.00
739.35	35320.00
739.79	35825.00
740.23	36447.00
740.67	36538.00
741.11	36184.00
741.55	35956.00
741.99	35865.00
742.44	36004.00
742.88	36378.00
743.32	36766.00
743.76	36873.00
744.20	36695.00
744.64	36284.00
745.08	36474.00
745.52	36985.00
745.96	37265.00
746.40	37055.00
746.84	37263.00
747.29	37436.00
747.73	37459.00
748.17	37374.00
748.61	37089.00
749.05	37013.00
749.49	36924.00
749.93	36849.00
750.37	37179.00
750.81	37058.00
751.25	36965.00
751.69	37111.00
752.13	37477.00
752.57	37337.00
753.01	36939.00
753.45	36954.00
753.89	37233.00
754.33	37278.00
754.77	37197.00
755.21	37150.00
755.65	37290.00
756.09	37175.00
756.53	37305.00
756.97	37230.00
757.41	36946.00
757.85	36844.00
758.29	36457.00
758.73	35561.00
759.17	33891.00
759.61	26873.00
760.05	17321.00
760.49	11513.00
760.93	10354.00
761.37	12890.00
761.81	19023.00
762.25	22584.00
762.69	20354.00
763.13	18345.00
763.57	18068.00
764.01	19189.00
764.45	20745.00
764.89	22787.00
765.33	24589.00
765.77	26391.00
766.21	27970.00
766.65	29355.00
767.09	31656.00
767.53	32929.00
767.96	33836.00
768.40	34086.00
768.84	34639.00
769.28	34455.00
769.72	34840.00
770.16	34891.00
770.60	35448.00
771.04	35865.00
771.48	35539.00
771.92	35591.00
772.35	35786.00
772.79	35873.00
773.23	35987.00
773.67	35945.00
774.11	35882.00
774.55	35198.00
774.99	34750.00
775.43	34728.00
775.86	35164.00
776.30	35464.00
776.74	35456.00
777.18	35492.00
777.62	35481.00
778.06	35125.00
778.50	35420.00
778.93	35167.00
779.37	35138.00
779.81	34681.00
780.25	34679.00
780.69	34437.00
781.12	34278.00
781.56	34749.00
782.00	34639.00
782.44	35114.00
782.88	34877.00
783.32	34473.00
783.75	34110.00
784.19	34425.00
784.63	34459.00
785.07	34217.00
785.50	34009.00
785.94	33765.00
786.38	33647.00
786.82	33357.00
787.26	33354.00
787.69	33141.00
788.13	33103.00
788.57	33246.00
789.01	33139.00
789.44	32734.00
789.88	32622.00
790.32	32355.00
790.76	32506.00
791.19	32168.00
791.63	31739.00
792.07	31539.00
792.51	31525.00
792.94	31374.00
793.38	31323.00
793.82	31588.00
794.25	31769.00
794.69	31703.00
795.13	31903.00
795.56	31964.00
796.00	31537.00
796.44	30704.00
796.88	30903.00
797.31	31087.00
797.75	31192.00
798.19	31125.00
798.62	31096.00
799.06	31129.00
799.50	31054.00
799.93	30605.00
800.37	30394.00
800.81	30841.00
801.24	30730.00
801.68	30896.00
802.12	30830.00
802.55	30379.00
802.99	29776.00
803.43	29990.00
803.86	30023.00
804.30	29896.00
804.73	29504.00
805.17	29652.00
805.61	30271.00
806.04	30474.00
806.48	30606.00
806.92	30499.00
807.35	30309.00
807.79	30049.00
808.22	29977.00
808.66	29551.00
809.10	29204.00
809.53	28879.00
809.97	28613.00
810.40	28545.00
810.84	28511.00
811.27	28058.00
811.71	28266.00
812.15	27961.00
812.58	27632.00
813.02	26994.00
813.45	25714.00
813.89	25413.00
814.32	24907.00
814.76	24237.00
815.19	23303.00
815.63	23168.00
816.07	22863.00
816.50	21682.00
816.94	22110.00
817.37	23510.00
817.81	22696.00
818.24	22533.00
818.68	23434.00
819.11	23862.00
819.55	23620.00
819.98	23353.00
820.42	25044.00
820.85	26181.00
821.29	25752.00
821.72	25294.00
822.16	24082.00
822.59	21781.00
823.03	18821.00
823.46	20308.00
823.90	23464.00
824.33	24452.00
824.77	25763.00
825.20	25942.00
825.63	25348.00
826.07	25098.00
826.50	25808.00
826.94	25959.00
827.37	24387.00
827.81	23395.00
828.24	23380.00
828.68	23891.00
829.11	23447.00
829.54	23548.00
829.98	24173.00
830.41	24027.00
830.85	24349.00
831.28	24719.00
831.71	24357.00
832.15	24070.00
832.58	24895.00
833.02	24806.00
833.45	24265.00
833.88	24379.00
834.32	24900.00
834.75	25312.00
835.19	25354.00
835.62	25159.00
836.05	25061.00
836.49	25292.00
836.92	25603.00
837.35	25684.00
837.79	25795.00
838.22	26053.00
838.66	26005.00
839.09	26244.00
839.52	26740.00
839.96	26538.00
840.39	26550.00
840.82	26100.00
841.26	25840.00
841.69	25612.00
842.12	25778.00
842.56	25883.00
842.99	25899.00
843.42	25665.00
843.85	25427.00
844.29	25830.00
844.72	25910.00
845.15	26411.00
845.59	26784.00
846.02	26751.00
846.45	26637.00
846.88	26239.00
847.32	26274.00
847.75	26082.00
848.18	25851.00
848.62	25567.00
849.05	25346.00
849.48	24501.00
849.91	23289.00
850.35	24217.00
850.78	25388.00
851.21	25344.00
851.64	25157.00
852.08	25661.00
852.51	25783.00
852.94	25776.00
853.37	25179.00
853.80	23069.00
854.24	20865.00
854.67	22205.00
855.10	23940.00
855.53	24502.00
855.97	24679.00
856.40	24860.00
856.83	25175.00
857.26	25237.00
857.69	25437.00
858.13	25213.00
858.56	25304.00
858.99	25412.00
859.42	25266.00
859.85	25512.00
860.28	25621.00
860.72	25812.00
861.15	25379.00
861.58	25326.00
862.01	25281.00
862.44	24966.00
862.87	24890.00
863.30	24679.00
863.74	24733.00
864.17	24894.00
864.60	24693.00
865.03	24484.00
865.46	24226.00
865.89	22294.00
866.32	21092.00
866.75	23008.00
867.19	24178.00
867.62	24583.00
868.05	24808.00
868.48	24700.00
868.91	24298.00
869.34	24590.00
869.77	24472.00
870.20	24225.00
870.63	24332.00
871.06	23781.00
871.49	23921.00
871.93	24169.00
872.36	24293.00
872.79	24063.00
873.22	24107.00
873.65	23917.00
874.08	23792.00
874.51	23902.00
874.94	23924.00
875.37	24021.00
875.80	24281.00
876.23	24058.00
876.66	23987.00
877.09	23665.00
877.52	23721.00
877.95	23553.00
878.38	23616.00
878.81	23128.00
879.24	23062.00
879.67	23353.00
880.10	23320.00
880.53	22615.00
880.96	23098.00
881.39	23810.00
881.82	23794.00
882.25	23805.00
882.68	23893.00
883.11	24087.00
883.54	24046.00
883.97	24009.00
884.40	23993.00
884.83	23836.00
885.26	23597.00
885.69	22951.00
886.12	22847.00
886.55	22601.00
886.98	23013.00
887.40	23177.00
887.83	23229.00
888.26	23188.00
888.69	23579.00
889.12	23347.00
889.55	23214.00
889.98	23169.00
890.41	23373.00
890.84	23302.00
891.27	23261.00
891.70	23146.00
892.12	22961.00
892.55	22329.00
892.98	21779.00
893.41	21912.00
893.84	21406.00
894.27	20674.00
894.70	20135.00
895.13	19481.00
895.55	19565.00
895.98	18756.00
896.41	18147.00
896.84	18159.00
897.27	18003.00
897.70	18679.00
898.13	18391.00
898.55	15784.00
898.98	15651.00
899.41	18230.00
899.84	17471.00
900.27	16984.00
900.70	16908.00
901.12	17192.00
901.55	17209.00
901.98	17194.00
902.41	17363.00
902.84	18443.00
903.26	19781.00
903.69	19975.00
904.12	19817.00
904.55	19987.00
904.97	19558.00
905.40	19745.00
905.83	18485.00
906.26	18023.00
906.69	17132.00
907.11	16980.00
907.54	16809.00
907.97	16686.00
908.40	16709.00
908.82	16484.00
909.25	16641.00
909.68	16340.00
910.10	16476.00
910.53	16358.00
910.96	17552.00
911.39	16781.00
911.81	16993.00
912.24	17145.00
912.67	15643.00
913.09	14728.00
913.52	15433.00
913.95	16873.00
914.38	17023.00
914.80	15248.00
915.23	14591.00
915.66	16083.00
916.08	17272.00
916.51	17060.00
916.94	15317.00
917.36	15296.00
917.79	16491.00
918.22	16926.00
918.64	17463.00
919.07	17093.00
919.50	17711.00
919.92	18131.00
920.35	17588.00
920.78	17187.00
921.20	16725.00
921.63	17055.00
922.05	17332.00
922.48	16878.00
922.91	16658.00
923.33	16174.00
923.76	16258.00
924.18	16097.00
924.61	16515.00
925.04	16437.00
925.46	16089.00
925.89	16229.00
926.31	16459.00
926.74	15814.00
927.17	14491.00
927.59	13250.00
928.02	12648.00
928.44	12288.00
928.87	11909.00
929.29	11008.00
929.72	10420.00
930.15	10253.00
930.57	9559.00
931.00	8912.00
931.42	7955.00
931.85	7421.00
932.27	7397.00
932.70	7309.00
933.12	6221.00
933.55	5934.00
933.97	5909.00
934.40	7381.00
934.82	7067.00
935.25	6289.00
935.67	6756.00
936.10	6509.00
936.52	5857.00
936.95	6187.00
937.37	5969.00
937.80	6377.00
938.22	7221.00
938.65	8391.00
939.07	8715.00
939.50	7755.00
939.92	7520.00
940.35	7234.00
940.77	7072.00
941.19	7181.00
941.62	7181.00
942.04	6608.00
942.47	6126.00
942.89	6924.00
943.32	6112.00
943.74	5625.00
944.16	6503.00
944.59	6788.00
945.01	6209.00
945.44	5906.00
945.86	6388.00
946.29	6522.00
946.71	6805.00
947.13	6794.00
947.56	6477.00
947.98	7142.00
948.40	7807.00
948.83	6801.00
949.25	6037.00
949.68	6703.00
950.10	8084.00
950.52	8428.00
950.95	7346.00
951.37	6507.00
951.79	6571.00
952.22	7191.00
952.64	7952.00
953.06	8185.00
953.49	7786.00
953.91	7458.00
954.33	7901.00
954.76	7556.00
955.18	7828.00
955.60	7863.00
956.03	7654.00
956.45	8476.00
956.87	9463.00
957.30	8884.00
957.72	8844.00
958.14	7948.00
958.56	7603.00
958.99	8277.00
959.41	9023.00
959.83	9070.00
960.26	9529.00
960.68	9871.00
961.10	9574.00
961.52	9075.00
961.95	9396.00
962.37	10513.00
962.79	10150.00
963.21	9793.00
963.64	9929.00
964.06	10205.00
964.48	10567.00
964.90	10723.00
965.32	10146.00
965.75	10181.00
966.17	10788.00
966.59	12008.00
967.01	12277.00
967.44	11917.00
967.86	12382.00
968.28	12473.00
968.70	12682.00
969.12	12586.00
969.54	12765.00
969.97	12972.00
970.39	12905.00
970.81	12870.00
971.23	12749.00
971.65	12313.00
972.07	12234.00
972.50	11952.00
972.92	11451.00
973.34	11762.00
973.76	11946.00
974.18	12035.00
974.60	11734.00
975.02	11537.00
975.45	11425.00
975.87	11944.00
976.29	12501.00
976.71	12240.00
977.13	12032.00
977.55	11987.00
977.97	12017.00
978.39	11801.00
978.81	12161.00
979.24	12063.00
979.66	12673.00
980.08	12882.00
980.50	12820.00
980.92	12773.00
981.34	12577.00
981.76	12515.00
982.18	12619.00
982.60	12829.00
983.02	12950.00
983.44	12743.00
983.86	12629.00
984.28	12649.00
984.70	12793.00
985.12	12869.00
985.54	12733.00
985.96	12516.00
986.38	12455.00
986.80	12545.00
987.23	12696.00
987.65	12733.00
988.07	12652.00
988.49	12682.00
988.91	12724.00
989.33	12732.00
989.74	12723.00
990.16	12675.00
990.58	12547.00
991.00	12562.00
991.42	12496.00
991.84	12480.00
992.26	12540.00
992.68	12551.00
993.10	12593.00
993.52	12508.00
993.94	12511.00
994.36	12363.00
994.78	12304.00
995.20	12247.00
995.62	12297.00
996.04	12177.00
996.46	12378.00
996.88	12340.00
997.30	12366.00
997.71	12438.00
998.13	12492.00
998.55	12573.00
998.97	12582.00
999.39	12648.00
999.81	12615.00
1000.23	12667.00
1000.65	12423.00
1001.07	12523.00
1001.49	12442.00
1001.90	12382.00
1002.32	12328.00
1002.74	12385.00
1003.16	12215.00
1003.58	12144.00
1004.00	11873.00
1004.42	12076.00
1004.83	12089.00
1005.25	12130.00
1005.67	12119.00
1006.09	11975.00
1006.51	11912.00
1006.92	11803.00
1007.34	11880.00
1007.76	11857.00
1008.18	11733.00
1008.60	11748.00
1009.02	11702.00
1009.43	11796.00
1009.85	11842.00
1010.27	11653.00
1010.69	11874.00
1011.10	11626.00
1011.52	11592.00
1011.94	11595.00
1012.36	11418.00
1012.78	11353.00
1013.19	11091.00
1013.61	11153.00
1014.03	11165.00
1014.45	11035.00
1014.86	11092.00
1015.28	11002.00
1015.70	10999.00
1016.12	10855.00
1016.53	10881.00
1016.95	10702.00
1017.37	10635.00
1017.78	10496.00
1018.20	10417.00
1018.62	10390.00
1019.03	10364.00
1019.45	10212.00
1019.87	10182.00
1020.29	10139.00
1020.70	10102.00
1021.12	10059.00
1021.54	10024.00
1021.95	10079.00
1022.37	9983.00
1022.79	9972.00
1023.20	9822.00
1023.62	9883.00
1024.04	9745.00
1024.45	9704.00
1024.87	9559.00
1025.28	9580.00
1025.70	9537.00
1026.12	9454.00
1026.53	9428.00
1026.95	9339.00
1027.37	9200.00
1027.78	9202.00
1028.20	9197.00
1028.61	9140.00
1029.03	9032.00
1029.45	9020.00
1029.86	8902.00
1030.28	8821.00
1030.69	8836.00
1031.11	8604.00
1031.53	8500.00
1031.94	8501.00
1032.36	8521.00
1032.77	8425.00
1033.19	8440.00
1033.60	8397.00
1034.02	8292.00
1034.43	8385.00
1034.85	8226.00
1035.27	8168.00
1035.68	8119.00
1036.10	8219.00
1036.51	7995.00
1036.93	7987.00
1037.34	7922.00
1037.76	7845.00
1038.17	7902.00
1038.59	7778.00
1039.00	7623.00
1039.42	7683.00
1039.83	7626.00
1040.25	7560.00
1040.66	7540.00
1041.08	7581.00
1041.49	7387.00
1041.91	7345.00
1042.32	7329.00
1042.73	7279.00
1043.15	7139.00
1043.56	7140.00
1043.98	7087.00
1044.39	6980.00
1044.81	6947.00
1045.22	6929.00
1045.64	6944.00
1046.05	6908.00
1046.46	6790.00
1046.88	6747.00
1047.29	6708.00
1047.71	6726.00
1048.12	6687.00
1048.53	6662.00
1048.95	6639.00
1049.36	6509.00
1049.78	6495.00
1050.19	6390.00
1050.60	6413.00
1051.02	6297.00
1051.43	6278.00
1051.85	6250.00
1052.26	6136.00
1052.67	6192.00
1053.09	6169.00
1053.50	6130.00
1053.91	6046.00
1054.33	5979.00
1054.74	5933.00
1055.15	5928.00
1055.57	5879.00
1055.98	5813.00
1056.39	5780.00
1056.81	5759.00
1057.22	5601.00
1057.63	5684.00
1058.05	5572.00
1058.46	5530.00
1058.87	5503.00
1059.28	5562.00
1059.70	5460.00
1060.11	5516.00
1060.52	5352.00
1060.94	5467.00
1061.35	5309.00
1061.76	5287.00
1062.17	5268.00
1062.59	5241.00
1063.00	5197.00
1063.41	5133.00
1063.82	5114.00
1064.24	5084.00
1064.65	5078.00
1065.06	5032.00
1065.47	4984.00
1065.89	4973.00
1066.30	4925.00
1066.71	4989.00
1067.12	4791.00
1067.53	4801.00
1067.95	4849.00
1068.36	4812.00
1068.77	4763.00
1069.18	4748.00
1069.59	4690.00
1070.00	4689.00
1070.42	4577.00
1070.83	4618.00
1071.24	4609.00
1071.65	4541.00
1072.06	4564.00
1072.47	4517.00
1072.89	4435.00
1073.30	4440.00
1073.71	4455.00
1074.12	4433.00
1074.53	4441.00
1074.94	4388.00
1075.35	4309.00
1075.77	4322.00
1076.18	4297.00
1076.59	4293.00
1077.00	4239.00
1077.41	4223.00
1077.82	4182.00
1078.23	4183.00
1078.64	4205.00
1079.05	4108.00
1079.46	4163.00
1079.87	4076.00
1080.29	4144.00
1080.70	4078.00
1081.11	4084.00
1081.52	4024.00
1081.93	3969.00
1082.34	3955.00
1082.75	3978.00
1083.16	3932.00
1083.57	3943.00
1083.98	3931.00
1084.39	3855.00
1084.80	3850.00
1085.21	3815.00
1085.62	3799.00
1086.03	4221.00
1086.44	3795.00
1086.85	3809.00
1087.26	3772.00
1087.67	3779.00
1088.08	3745.00
1088.49	3740.00
1088.90	3725.00
1089.31	3722.00
1089.72	3625.00
1090.13	3669.00
1090.54	3608.00
1090.95	3602.00
1091.36	3570.00
1091.77	3599.00
1092.18	3531.00
1092.59	3549.00
1093.00	3567.00
1093.40	3517.00
1093.81	3452.00
1094.22	3476.00
1094.63	3458.00
1095.04	3431.00
1095.45	3430.00
1095.86	3366.00
1096.27	3329.00
1096.68	3345.00
1097.09	3358.00
1097.50	3309.00
1097.90	3298.00
1098.31	3271.00
1098.72	3273.00
1099.13	3242.00
1099.54	3216.00
1099.95	3225.00
1100.36	3213.00
1100.76	3219.00
1101.17	3152.00
1101.58	3146.00
1101.99	3142.00
1102.40	3134.00
1102.81	3139.00
1103.22	3114.00
1103.62	3091.00
1104.03	3107.00
1104.44	3079.00
1104.85	3051.00
1105.26	3052.00
1105.66	3019.00
1106.07	3004.00
1106.48	3045.00
1106.89	2987.00
1107.30	3007.00
1107.70	2991.00
1108.11	3028.00
1108.52	2989.00
1108.93	2945.00
1109.33	2976.00
1109.74	2957.00
1110.15	2944.00
1110.56	2931.00
1110.96	2931.00
1111.37	2935.00
1111.78	2928.00
1112.19	2906.00
1112.59	2897.00
1113.00	2927.00
1113.41	2869.00
1113.81	2878.00
1114.22	2873.00
1114.63	2599.00
1115.03	2604.00
1115.44	2602.00
1115.85	2600.00
>>>>>End Processed Spectral Data<<<<<
