SpectraSuite Data File
++++++++++++++++++++++++++++++++++++
Date: Wed Jul 15 11:00:27 EEST 2020
User: CanSEE
Dark Spectrum Present: No
Reference Spectrum Present: No
Number of Sampled Component Spectra: 1
Spectrometers: MAYP112785
Integration Time (usec): 100000 (MAYP112785)
Spectra Averaged: 1 (MAYP112785)
Boxcar Smoothing: 0 (MAYP112785)
Correct for Electrical Dark: No (MAYP112785)
Strobe/Lamp Enabled: No (MAYP112785)
Correct for Detector Non-linearity: No (MAYP112785)
Correct for Stray Light: No (MAYP112785)
Number of Pixels in Processed Spectrum: 2068
>>>>>Begin Processed Spectral Data<<<<<
198.73	3398.00
199.20	2463.00
199.67	2566.00
200.14	2541.00
200.61	2624.00
201.08	2609.00
201.56	2629.00
202.03	2674.00
202.50	2667.00
202.97	2654.00
203.44	2654.00
203.91	2665.00
204.39	2653.00
204.86	2661.00
205.33	2653.00
205.80	2653.00
206.27	2673.00
206.74	2674.00
207.21	2662.00
207.69	2655.00
208.16	2653.00
208.63	2669.00
209.10	2658.00
209.57	2663.00
210.04	2671.00
210.51	2662.00
210.98	2668.00
211.46	2685.00
211.93	2664.00
212.40	2666.00
212.87	2662.00
213.34	2675.00
213.81	2667.00
214.28	2671.00
214.75	2680.00
215.23	2657.00
215.70	2664.00
216.17	2668.00
216.64	2663.00
217.11	2662.00
217.58	2670.00
218.05	2683.00
218.52	2674.00
218.99	2670.00
219.46	2671.00
219.94	2668.00
220.41	2676.00
220.88	2675.00
221.35	2678.00
221.82	2675.00
222.29	2670.00
222.76	2662.00
223.23	2665.00
223.70	2667.00
224.17	2678.00
224.64	2681.00
225.11	2661.00
225.58	2676.00
226.06	2667.00
226.53	2678.00
227.00	2668.00
227.47	2690.00
227.94	2673.00
228.41	2677.00
228.88	2689.00
229.35	2689.00
229.82	2665.00
230.29	2671.00
230.76	2675.00
231.23	2664.00
231.70	2675.00
232.17	2665.00
232.64	2688.00
233.11	2681.00
233.58	2668.00
234.05	2685.00
234.52	2679.00
235.00	2692.00
235.47	2671.00
235.94	2660.00
236.41	2663.00
236.88	2681.00
237.35	2671.00
237.82	2677.00
238.29	2684.00
238.76	2665.00
239.23	2689.00
239.70	3036.00
240.17	2669.00
240.64	2680.00
241.11	2680.00
241.58	2685.00
242.05	2671.00
242.52	2673.00
242.99	2667.00
243.46	2677.00
243.93	2661.00
244.40	2682.00
244.87	2687.00
245.34	2677.00
245.81	2723.00
246.28	2683.00
246.75	2670.00
247.22	2676.00
247.69	2681.00
248.16	2692.00
248.63	2697.00
249.10	2662.00
249.57	2683.00
250.04	2679.00
250.51	2682.00
250.98	2693.00
251.44	2678.00
251.91	2679.00
252.38	2674.00
252.85	2673.00
253.32	2683.00
253.79	2671.00
254.26	2676.00
254.73	2690.00
255.20	2682.00
255.67	2672.00
256.14	2685.00
256.61	2673.00
257.08	2685.00
257.55	2692.00
258.02	2671.00
258.49	2670.00
258.96	2684.00
259.43	2696.00
259.90	2692.00
260.36	2670.00
260.83	2682.00
261.30	2689.00
261.77	2692.00
262.24	2682.00
262.71	2680.00
263.18	2682.00
263.65	2699.00
264.12	2698.00
264.59	2673.00
265.06	2705.00
265.53	2680.00
265.99	2692.00
266.46	2686.00
266.93	2666.00
267.40	2686.00
267.87	2685.00
268.34	2681.00
268.81	2690.00
269.28	2686.00
269.75	2675.00
270.22	2695.00
270.68	2672.00
271.15	2684.00
271.62	2689.00
272.09	2697.00
272.56	2671.00
273.03	2689.00
273.50	2683.00
273.97	2673.00
274.43	2674.00
274.90	2701.00
275.37	2694.00
275.84	2678.00
276.31	2680.00
276.78	2683.00
277.25	2679.00
277.71	2674.00
278.18	2672.00
278.65	2685.00
279.12	2675.00
279.59	2684.00
280.06	2655.00
280.53	2696.00
280.99	2682.00
281.46	2702.00
281.93	2681.00
282.40	2684.00
282.87	2678.00
283.34	2672.00
283.80	2673.00
284.27	2683.00
284.74	2668.00
285.21	2669.00
285.68	2672.00
286.15	2676.00
286.61	2656.00
287.08	2673.00
287.55	2675.00
288.02	2675.00
288.49	2677.00
288.95	2667.00
289.42	2666.00
289.89	2674.00
290.36	2674.00
290.83	2679.00
291.29	2673.00
291.76	2665.00
292.23	2671.00
292.70	2674.00
293.17	2661.00
293.63	2679.00
294.10	2662.00
294.57	2669.00
295.04	2663.00
295.51	2674.00
295.97	2671.00
296.44	2670.00
296.91	2671.00
297.38	2664.00
297.84	2701.00
298.31	2671.00
298.78	2681.00
299.25	2689.00
299.71	2692.00
300.18	2683.00
300.65	2680.00
301.12	2676.00
301.58	2678.00
302.05	2700.00
302.52	2713.00
302.99	2709.00
303.45	2737.00
303.92	2745.00
304.39	2771.00
304.86	2788.00
305.32	2802.00
305.79	2821.00
306.26	2837.00
306.73	2855.00
307.19	2880.00
307.66	2931.00
308.13	2971.00
308.60	3021.00
309.06	3032.00
309.53	3003.00
310.00	3047.00
310.46	3096.00
310.93	3224.00
311.40	3311.00
311.87	3344.00
312.33	3350.00
312.80	3377.00
313.27	3458.00
313.73	3505.00
314.20	3539.00
314.67	3537.00
315.13	3591.00
315.60	3660.00
316.07	3676.00
316.53	3627.00
317.00	3802.00
317.47	3989.00
317.94	4054.00
318.40	4018.00
318.87	3983.00
319.34	4084.00
319.80	4182.00
320.27	4204.00
320.74	4383.00
321.20	4381.00
321.67	4348.00
322.14	4319.00
322.60	4374.00
323.07	4357.00
323.54	4316.00
324.00	4508.00
324.47	4660.00
324.93	4770.00
325.40	4939.00
325.87	5034.00
326.33	5290.00
326.80	5456.00
327.27	5477.00
327.73	5464.00
328.20	5433.00
328.67	5390.00
329.13	5573.00
329.60	5784.00
330.06	6015.00
330.53	6021.00
331.00	5843.00
331.46	5721.00
331.93	5685.00
332.40	5835.00
332.86	5882.00
333.33	5822.00
333.79	5774.00
334.26	5752.00
334.73	5795.00
335.19	5949.00
335.66	5962.00
336.12	5867.00
336.59	5705.00
337.06	5539.00
337.52	5591.00
337.99	5705.00
338.45	5922.00
338.92	6055.00
339.38	6141.00
339.85	6271.00
340.32	6360.00
340.78	6569.00
341.25	6445.00
341.71	6300.00
342.18	6371.00
342.64	6503.00
343.11	6612.00
343.58	6589.00
344.04	6383.00
344.51	6255.00
344.97	6069.00
345.44	6352.00
345.90	6683.00
346.37	6674.00
346.83	6620.00
347.30	6879.00
347.77	6882.00
348.23	6704.00
348.70	6794.00
349.16	6931.00
349.63	6935.00
350.09	6998.00
350.56	7325.00
351.02	7600.00
351.49	7404.00
351.95	7274.00
352.42	7273.00
352.88	7163.00
353.35	7157.00
353.81	7547.00
354.28	7787.00
354.74	7998.00
355.21	7899.00
355.67	7861.00
356.14	7585.00
356.60	7339.00
357.07	7094.00
357.53	6766.00
358.00	6682.00
358.46	6719.00
358.93	6562.00
359.39	6839.00
359.86	7610.00
360.32	7963.00
360.79	7826.00
361.25	7487.00
361.72	7194.00
362.18	7530.00
362.65	7633.00
363.11	8002.00
363.58	8111.00
364.04	7913.00
364.51	8188.00
364.97	8279.00
365.43	8166.00
365.90	8816.00
366.36	9065.00
366.83	9245.00
367.29	9033.00
367.76	9064.00
368.22	8980.00
368.69	8776.00
369.15	8822.00
369.61	9016.00
370.08	9367.00
370.54	9364.00
371.01	9059.00
371.47	8896.00
371.94	9090.00
372.40	8946.00
372.86	8502.00
373.33	8559.00
373.79	8315.00
374.26	7946.00
374.72	8191.00
375.19	8340.00
375.65	8482.00
376.11	9278.00
376.58	9466.00
377.04	9457.00
377.51	9853.00
377.97	10373.00
378.43	10706.00
378.90	10778.00
379.36	10183.00
379.82	9687.00
380.29	9517.00
380.75	9725.00
381.22	10025.00
381.68	9698.00
382.14	9028.00
382.61	8302.00
383.07	8031.00
383.53	7779.00
384.00	7928.00
384.46	8303.00
384.93	9056.00
385.39	9714.00
385.85	9747.00
386.32	9607.00
386.78	9579.00
387.24	9845.00
387.71	9802.00
388.17	9943.00
388.63	10116.00
389.10	10250.00
389.56	10681.00
390.02	11375.00
390.49	11937.00
390.95	11750.00
391.41	11711.00
391.88	11766.00
392.34	11260.00
392.80	10382.00
393.27	9418.00
393.73	8527.00
394.19	8605.00
394.66	9962.00
395.12	11156.00
395.58	11835.00
396.05	11873.00
396.51	11416.00
396.97	10503.00
397.43	9960.00
397.90	11199.00
398.36	13344.00
398.82	15034.00
399.29	15580.00
399.75	16109.00
400.21	16484.00
400.67	16741.00
401.14	16918.00
401.60	17064.00
402.06	17527.00
402.53	17741.00
402.99	17630.00
403.45	17484.00
403.91	17241.00
404.38	17409.00
404.84	17455.00
405.30	17051.00
405.76	17273.00
406.23	17399.00
406.69	17243.00
407.15	17372.00
407.61	17620.00
408.08	17833.00
408.54	17911.00
409.00	18404.00
409.46	18709.00
409.93	18595.00
410.39	18030.00
410.85	17935.00
411.31	18425.00
411.77	19482.00
412.24	19707.00
412.70	19949.00
413.16	19762.00
413.62	19626.00
414.09	19640.00
414.55	20068.00
415.01	20009.00
415.47	19931.00
415.93	20091.00
416.40	20082.00
416.86	20493.00
417.32	20472.00
417.78	19956.00
418.24	19694.00
418.71	19897.00
419.17	19920.00
419.63	20167.00
420.09	20551.00
420.55	20374.00
421.01	20480.00
421.48	21101.00
421.94	21075.00
422.40	20666.00
422.86	20463.00
423.32	20016.00
423.78	20416.00
424.25	20715.00
424.71	20897.00
425.17	21102.00
425.63	20697.00
426.09	20607.00
426.55	20577.00
427.01	20678.00
427.48	20780.00
427.94	19997.00
428.40	20081.00
428.86	20015.00
429.32	19411.00
429.78	18659.00
430.24	18358.00
430.71	18030.00
431.17	18122.00
431.63	18862.00
432.09	20760.00
432.55	22498.00
433.01	22152.00
433.47	21692.00
433.93	22527.00
434.39	22088.00
434.86	21740.00
435.32	22819.00
435.78	23749.00
436.24	23824.00
436.70	24219.00
437.16	24410.00
437.62	23808.00
438.08	23347.00
438.54	23100.00
439.00	22920.00
439.46	22980.00
439.93	23880.00
440.39	24654.00
440.85	24697.00
441.31	24852.00
441.77	25651.00
442.23	26118.00
442.69	26440.00
443.15	26590.00
443.61	26780.00
444.07	26774.00
444.53	26755.00
444.99	26839.00
445.45	27047.00
445.91	26754.00
446.37	26554.00
446.83	26834.00
447.29	27715.00
447.75	28322.00
448.21	28626.00
448.67	28757.00
449.14	28653.00
449.60	29340.00
450.06	29462.00
450.52	29880.00
450.98	30172.00
451.44	30445.00
451.90	30110.00
452.36	29370.00
452.82	29322.00
453.28	28999.00
453.74	28548.00
454.20	28991.00
454.66	29833.00
455.12	30116.00
455.58	29982.00
456.04	30182.00
456.50	30756.00
456.96	30980.00
457.42	30831.00
457.88	30980.00
458.33	30843.00
458.79	30515.00
459.25	30514.00
459.71	30788.00
460.17	30998.00
460.63	31260.00
461.09	31363.00
461.55	32052.00
462.01	32028.00
462.47	32061.00
462.93	32250.00
463.39	32286.00
463.85	32130.00
464.31	31851.00
464.77	31614.00
465.23	31685.00
465.69	31637.00
466.15	31605.00
466.61	31599.00
467.07	31500.00
467.52	31448.00
467.98	31630.00
468.44	32207.00
468.90	32247.00
469.36	32123.00
469.82	31899.00
470.28	31920.00
470.74	32155.00
471.20	32052.00
471.66	32490.00
472.12	32847.00
472.57	33361.00
473.03	33341.00
473.49	33079.00
473.95	33039.00
474.41	33236.00
474.87	33418.00
475.33	33714.00
475.79	33620.00
476.25	33311.00
476.70	33660.00
477.16	33635.00
477.62	33932.00
478.08	34308.00
478.54	34644.00
479.00	34528.00
479.46	34374.00
479.91	34662.00
480.37	35051.00
480.83	35029.00
481.29	35188.00
481.75	35099.00
482.21	35398.00
482.67	35257.00
483.12	35192.00
483.58	34709.00
484.04	34751.00
484.50	34521.00
484.96	33542.00
485.42	32576.00
485.87	31869.00
486.33	31223.00
486.79	30763.00
487.25	31156.00
487.71	32849.00
488.16	33179.00
488.62	33921.00
489.08	34404.00
489.54	34495.00
490.00	34673.00
490.45	35425.00
490.91	35387.00
491.37	34896.00
491.83	34340.00
492.29	34809.00
492.74	34448.00
493.20	34640.00
493.66	35433.00
494.12	35784.00
494.57	35573.00
495.03	35872.00
495.49	36274.00
495.95	36444.00
496.40	36067.00
496.86	36022.00
497.32	36027.00
497.78	35745.00
498.23	35633.00
498.69	35665.00
499.15	35203.00
499.61	35137.00
500.06	35397.00
500.52	35082.00
500.98	34549.00
501.44	34379.00
501.89	34365.00
502.35	34546.00
502.81	34778.00
503.27	35174.00
503.72	35080.00
504.18	35196.00
504.64	35210.00
505.09	35795.00
505.55	36513.00
506.01	36636.00
506.47	36463.00
506.92	36598.00
507.38	36135.00
507.84	35935.00
508.29	36072.00
508.75	36236.00
509.21	36455.00
509.66	36740.00
510.12	37014.00
510.58	36788.00
511.03	36874.00
511.49	37365.00
511.95	37114.00
512.40	37276.00
512.86	37156.00
513.32	36499.00
513.77	36348.00
514.23	36322.00
514.69	36441.00
515.14	36456.00
515.60	36376.00
516.06	35852.00
516.51	34676.00
516.97	34149.00
517.43	33607.00
517.88	33022.00
518.34	33830.00
518.79	35071.00
519.25	35078.00
519.71	35825.00
520.16	36558.00
520.62	37115.00
521.08	37390.00
521.53	37394.00
521.99	37242.00
522.44	37401.00
522.90	37445.00
523.36	37493.00
523.81	37820.00
524.27	38199.00
524.72	38816.00
525.18	38961.00
525.64	38453.00
526.09	37713.00
526.55	36923.00
527.00	36529.00
527.46	36240.00
527.92	36844.00
528.37	38132.00
528.83	39370.00
529.28	39196.00
529.74	39760.00
530.19	39886.00
530.65	39652.00
531.10	40043.00
531.56	40210.00
532.02	39737.00
532.47	39092.00
532.93	38623.00
533.38	38431.00
533.84	38663.00
534.29	39177.00
534.75	39811.00
535.20	40026.00
535.66	40372.00
536.11	40267.00
536.57	40086.00
537.02	40067.00
537.48	39565.00
537.93	39485.00
538.39	39881.00
538.84	39764.00
539.30	39644.00
539.75	39251.00
540.21	38683.00
540.66	38320.00
541.12	38517.00
541.57	38801.00
542.03	39247.00
542.48	39550.00
542.94	39487.00
543.39	39716.00
543.85	39896.00
544.30	39911.00
544.76	40371.00
545.21	40211.00
545.67	40360.00
546.12	40276.00
546.58	40127.00
547.03	40278.00
547.49	40060.00
547.94	40112.00
548.40	40213.00
548.85	40192.00
549.30	40582.00
549.76	40726.00
550.21	40620.00
550.67	40569.00
551.12	40921.00
551.58	40752.00
552.03	40860.00
552.48	40790.00
552.94	40789.00
553.39	40862.00
553.85	40901.00
554.30	41040.00
554.76	41165.00
555.21	41431.00
555.66	41249.00
556.12	41142.00
556.57	40611.00
557.03	40307.00
557.48	40512.00
557.93	40289.00
558.39	39958.00
558.84	40008.00
559.30	39881.00
559.75	39443.00
560.20	39768.00
560.66	40731.00
561.11	40613.00
561.56	40909.00
562.02	40881.00
562.47	40849.00
562.92	40804.00
563.38	40951.00
563.83	40910.00
564.29	41105.00
564.74	40864.00
565.19	40643.00
565.65	40332.00
566.10	40357.00
566.55	40365.00
567.01	40477.00
567.46	40943.00
567.91	40786.00
568.37	40584.00
568.82	40254.00
569.27	40294.00
569.73	40431.00
570.18	40207.00
570.63	40068.00
571.08	39852.00
571.54	39789.00
571.99	40030.00
572.44	40796.00
572.90	41108.00
573.35	41401.00
573.80	41395.00
574.26	41313.00
574.71	41317.00
575.16	40720.00
575.61	40679.00
576.07	40580.00
576.52	40776.00
576.97	41075.00
577.42	41011.00
577.88	40848.00
578.33	40678.00
578.78	40499.00
579.24	40529.00
579.69	40877.00
580.14	41242.00
580.59	41522.00
581.05	41807.00
581.50	41729.00
581.95	41772.00
582.40	42164.00
582.85	42396.00
583.31	42606.00
583.76	42494.00
584.21	42492.00
584.66	42442.00
585.12	42173.00
585.57	41724.00
586.02	41386.00
586.47	41496.00
586.92	41723.00
587.38	41854.00
587.83	41666.00
588.28	41136.00
588.73	39631.00
589.18	38254.00
589.64	37370.00
590.09	37478.00
590.54	38492.00
590.99	39590.00
591.44	40228.00
591.90	40404.00
592.35	40118.00
592.80	40381.00
593.25	40356.00
593.70	40625.00
594.15	40531.00
594.61	40096.00
595.06	39979.00
595.51	40352.00
595.96	40525.00
596.41	40709.00
596.86	41032.00
597.31	40925.00
597.77	40925.00
598.22	40926.00
598.67	40945.00
599.12	40719.00
599.57	41021.00
600.02	40901.00
600.47	41114.00
600.92	41005.00
601.38	40822.00
601.83	40515.00
602.28	40804.00
602.73	40936.00
603.18	41014.00
603.63	41686.00
604.08	42124.00
604.53	42143.00
604.98	42192.00
605.43	41834.00
605.89	41863.00
606.34	42106.00
606.79	41793.00
607.24	42069.00
607.69	42041.00
608.14	41962.00
608.59	41692.00
609.04	41547.00
609.49	41759.00
609.94	41650.00
610.39	41301.00
610.84	41572.00
611.29	41640.00
611.74	41727.00
612.19	41488.00
612.64	41482.00
613.10	41595.00
613.55	41314.00
614.00	40753.00
614.45	41236.00
614.90	41034.00
615.35	41508.00
615.80	41157.00
616.25	40521.00
616.70	40365.00
617.15	40329.00
617.60	40521.00
618.05	40954.00
618.50	41425.00
618.95	41672.00
619.40	41643.00
619.85	41753.00
620.30	41910.00
620.75	42101.00
621.20	41952.00
621.65	41727.00
622.10	41511.00
622.55	41342.00
623.00	41378.00
623.45	41241.00
623.89	40944.00
624.34	40647.00
624.79	40588.00
625.24	40748.00
625.69	40387.00
626.14	40689.00
626.59	40739.00
627.04	40964.00
627.49	41000.00
627.94	40455.00
628.39	40055.00
628.84	39921.00
629.29	40249.00
629.74	40454.00
630.19	40322.00
630.64	40186.00
631.09	40493.00
631.53	40706.00
631.98	40631.00
632.43	40644.00
632.88	40890.00
633.33	41494.00
633.78	41125.00
634.23	41138.00
634.68	41244.00
635.13	41410.00
635.58	41645.00
636.02	41678.00
636.47	41540.00
636.92	41717.00
637.37	41969.00
637.82	42417.00
638.27	42268.00
638.72	42347.00
639.16	42689.00
639.61	42219.00
640.06	42026.00
640.51	41773.00
640.96	41665.00
641.41	41545.00
641.86	41570.00
642.30	41600.00
642.75	41875.00
643.20	41915.00
643.65	42017.00
644.10	42036.00
644.55	41828.00
644.99	41966.00
645.44	41870.00
645.89	41620.00
646.34	41193.00
646.79	40965.00
647.23	40628.00
647.68	40505.00
648.13	40242.00
648.58	40237.00
649.03	40233.00
649.47	39741.00
649.92	39489.00
650.37	40244.00
650.82	40664.00
651.27	41129.00
651.71	40805.00
652.16	40509.00
652.61	40528.00
653.06	41063.00
653.50	41248.00
653.95	41406.00
654.40	40888.00
654.85	40456.00
655.29	40004.00
655.74	38957.00
656.19	36814.00
656.64	34951.00
657.08	35747.00
657.53	36867.00
657.98	39084.00
658.43	40318.00
658.87	40679.00
659.32	40616.00
659.77	40875.00
660.21	41039.00
660.66	41317.00
661.11	41451.00
661.56	41738.00
662.00	41894.00
662.45	41805.00
662.90	41667.00
663.34	41407.00
663.79	41426.00
664.24	41429.00
664.68	41318.00
665.13	41371.00
665.58	41967.00
666.02	41694.00
666.47	41423.00
666.92	41382.00
667.36	41359.00
667.81	41551.00
668.26	41335.00
668.70	41732.00
669.15	41763.00
669.60	41581.00
670.04	41438.00
670.49	41352.00
670.94	41122.00
671.38	41308.00
671.83	40795.00
672.28	40794.00
672.72	40884.00
673.17	41040.00
673.61	41281.00
674.06	41193.00
674.51	41157.00
674.95	40965.00
675.40	40928.00
675.85	40953.00
676.29	41086.00
676.74	40810.00
677.18	40842.00
677.63	40959.00
678.07	40652.00
678.52	40695.00
678.97	40784.00
679.41	40825.00
679.86	40677.00
680.30	40765.00
680.75	40740.00
681.20	40624.00
681.64	40435.00
682.09	40581.00
682.53	40801.00
682.98	40451.00
683.42	40350.00
683.87	40192.00
684.31	40012.00
684.76	39713.00
685.20	39834.00
685.65	39624.00
686.10	39182.00
686.54	38438.00
686.99	35187.00
687.43	31173.00
687.88	29904.00
688.32	31790.00
688.77	33639.00
689.21	34075.00
689.66	34145.00
690.10	34128.00
690.55	34504.00
690.99	35193.00
691.44	35762.00
691.88	36533.00
692.33	36852.00
692.77	36728.00
693.22	36431.00
693.66	36273.00
694.11	35736.00
694.55	35191.00
695.00	35566.00
695.44	35836.00
695.88	36286.00
696.33	36571.00
696.77	37329.00
697.22	38155.00
697.66	38135.00
698.11	37674.00
698.55	37408.00
699.00	36914.00
699.44	36517.00
699.88	36553.00
700.33	36411.00
700.77	36120.00
701.22	35944.00
701.66	35891.00
702.11	35942.00
702.55	35718.00
702.99	35908.00
703.44	36161.00
703.88	36841.00
704.33	36940.00
704.77	37215.00
705.21	37358.00
705.66	37172.00
706.10	37024.00
706.54	36985.00
706.99	37057.00
707.43	37156.00
707.88	37357.00
708.32	37441.00
708.76	36997.00
709.21	37124.00
709.65	37349.00
710.09	37285.00
710.54	37305.00
710.98	37166.00
711.42	37218.00
711.87	37020.00
712.31	36817.00
712.76	37005.00
713.20	36853.00
713.64	36813.00
714.08	36805.00
714.53	36629.00
714.97	36256.00
715.41	35678.00
715.86	35448.00
716.30	34955.00
716.74	33866.00
717.19	31647.00
717.63	29582.00
718.07	28417.00
718.52	27997.00
718.96	26855.00
719.40	26505.00
719.84	26308.00
720.29	26314.00
720.73	26486.00
721.17	28194.00
721.62	30397.00
722.06	32254.00
722.50	32429.00
722.94	32295.00
723.39	30975.00
723.83	28901.00
724.27	28461.00
724.71	27886.00
725.16	28312.00
725.60	28030.00
726.04	28614.00
726.48	28508.00
726.93	28937.00
727.37	29399.00
727.81	28493.00
728.25	28325.00
728.69	29159.00
729.14	28870.00
729.58	28044.00
730.02	28718.00
730.46	29141.00
730.90	29395.00
731.35	29404.00
731.79	29711.00
732.23	30403.00
732.67	31433.00
733.11	31948.00
733.56	32154.00
734.00	32646.00
734.44	33189.00
734.88	33218.00
735.32	33008.00
735.76	32902.00
736.21	33087.00
736.65	32666.00
737.09	32526.00
737.53	32976.00
737.97	33093.00
738.41	33160.00
738.85	32704.00
739.30	32441.00
739.74	32478.00
740.18	33055.00
740.62	33308.00
741.06	33185.00
741.50	33039.00
741.94	33002.00
742.38	32837.00
742.83	32993.00
743.27	33297.00
743.71	33505.00
744.15	33690.00
744.59	33369.00
745.03	33214.00
745.47	33498.00
745.91	33836.00
746.35	34158.00
746.79	33902.00
747.23	33788.00
747.68	34061.00
748.12	33898.00
748.56	33825.00
749.00	33884.00
749.44	33532.00
749.88	33460.00
750.32	33879.00
750.76	33860.00
751.20	33844.00
751.64	33832.00
752.08	33910.00
752.52	33844.00
752.96	33630.00
753.40	33784.00
753.84	33611.00
754.28	34008.00
754.72	33885.00
755.16	33780.00
755.60	34061.00
756.04	33874.00
756.48	33703.00
756.92	33876.00
757.36	33607.00
757.80	33513.00
758.24	33198.00
758.68	32742.00
759.12	31739.00
759.56	28919.00
760.00	20851.00
760.44	13410.00
760.88	9390.00
761.32	9137.00
761.76	12483.00
762.20	17648.00
762.64	18587.00
763.08	16554.00
763.52	15391.00
763.96	15579.00
764.40	16862.00
764.84	18481.00
765.28	20254.00
765.72	22284.00
766.15	23848.00
766.59	25304.00
767.03	27002.00
767.47	28724.00
767.91	29791.00
768.35	30388.00
768.79	30918.00
769.23	31035.00
769.67	31213.00
770.11	31352.00
770.55	31960.00
770.98	32181.00
771.42	32278.00
771.86	32419.00
772.30	32355.00
772.74	32505.00
773.18	32263.00
773.62	32254.00
774.06	32441.00
774.49	31936.00
774.93	31556.00
775.37	31194.00
775.81	31590.00
776.25	32052.00
776.69	32189.00
777.13	31984.00
777.56	31865.00
778.00	31936.00
778.44	31758.00
778.88	31640.00
779.32	31489.00
779.76	31393.00
780.19	31117.00
780.63	31051.00
781.07	31049.00
781.51	30936.00
781.95	31215.00
782.38	31388.00
782.82	31463.00
783.26	31532.00
783.70	30930.00
784.14	30890.00
784.57	30909.00
785.01	30745.00
785.45	30360.00
785.89	30202.00
786.32	30207.00
786.76	30130.00
787.20	29949.00
787.64	29704.00
788.07	29831.00
788.51	29790.00
788.95	29808.00
789.39	29519.00
789.82	28899.00
790.26	28639.00
790.70	28804.00
791.14	28429.00
791.57	28204.00
792.01	28139.00
792.45	28108.00
792.88	28055.00
793.32	27952.00
793.76	28083.00
794.20	28297.00
794.63	28474.00
795.07	28159.00
795.51	28460.00
795.94	28237.00
796.38	27527.00
796.82	27071.00
797.25	27385.00
797.69	27570.00
798.13	27607.00
798.56	27814.00
799.00	27551.00
799.44	27654.00
799.87	27465.00
800.31	27452.00
800.75	27343.00
801.18	27411.00
801.62	27214.00
802.06	27367.00
802.49	27167.00
802.93	26589.00
803.37	26341.00
803.80	26576.00
804.24	26627.00
804.67	26511.00
805.11	26277.00
805.55	26959.00
805.98	27108.00
806.42	27112.00
806.85	27319.00
807.29	26961.00
807.73	26753.00
808.16	26641.00
808.60	26314.00
809.03	25805.00
809.47	25798.00
809.91	25351.00
810.34	25375.00
810.78	25374.00
811.21	25169.00
811.65	25049.00
812.08	24789.00
812.52	24614.00
812.96	24361.00
813.39	23457.00
813.83	22229.00
814.26	21984.00
814.70	21583.00
815.13	20526.00
815.57	20287.00
816.00	20169.00
816.44	19554.00
816.87	18907.00
817.31	19653.00
817.74	20513.00
818.18	19530.00
818.61	19866.00
819.05	20482.00
819.48	20689.00
819.92	20245.00
820.35	20691.00
820.79	22321.00
821.22	22843.00
821.66	22544.00
822.09	21679.00
822.53	20568.00
822.96	17843.00
823.40	16638.00
823.83	18794.00
824.27	21045.00
824.70	21812.00
825.13	22822.00
825.57	22704.00
826.00	22032.00
826.44	21958.00
826.87	22796.00
827.31	22337.00
827.74	20824.00
828.17	20191.00
828.61	20624.00
829.04	20635.00
829.48	20583.00
829.91	20901.00
830.35	21401.00
830.78	21103.00
831.21	21732.00
831.65	21836.00
832.08	21392.00
832.52	21423.00
832.95	21766.00
833.38	21487.00
833.82	21322.00
834.25	21319.00
834.68	21971.00
835.12	22188.00
835.55	22398.00
835.98	22096.00
836.42	22241.00
836.85	22604.00
837.29	22676.00
837.72	22788.00
838.15	23163.00
838.59	23322.00
839.02	23181.00
839.45	23504.00
839.89	23415.00
840.32	23447.00
840.75	23017.00
841.18	23024.00
841.62	22824.00
842.05	22805.00
842.48	22884.00
842.92	22973.00
843.35	22854.00
843.78	22632.00
844.22	22834.00
844.65	23062.00
845.08	23396.00
845.51	23675.00
845.95	23844.00
846.38	23612.00
846.81	23434.00
847.24	23034.00
847.68	23079.00
848.11	22907.00
848.54	22730.00
848.97	22742.00
849.41	22546.00
849.84	21242.00
850.27	20980.00
850.70	22085.00
851.14	22781.00
851.57	22518.00
852.00	22709.00
852.43	22891.00
852.87	22822.00
853.30	22887.00
853.73	21837.00
854.16	19643.00
854.59	18669.00
855.03	20153.00
855.46	21363.00
855.89	21838.00
856.32	22171.00
856.75	22680.00
857.18	22631.00
857.62	22709.00
858.05	22747.00
858.48	22658.00
858.91	22734.00
859.34	22839.00
859.77	22832.00
860.21	22851.00
860.64	22796.00
861.07	22587.00
861.50	22578.00
861.93	22394.00
862.36	22433.00
862.79	22197.00
863.23	22136.00
863.66	22168.00
864.09	22342.00
864.52	22329.00
864.95	22088.00
865.38	21936.00
865.81	21219.00
866.24	19370.00
866.67	19525.00
867.10	21149.00
867.54	21843.00
867.97	22009.00
868.40	22061.00
868.83	21743.00
869.26	21519.00
869.69	21711.00
870.12	21499.00
870.55	21773.00
870.98	21598.00
871.41	21450.00
871.84	21416.00
872.27	21772.00
872.70	21738.00
873.13	21509.00
873.56	21433.00
873.99	21475.00
874.42	21566.00
874.85	21584.00
875.28	21371.00
875.71	21434.00
876.14	21534.00
876.57	21114.00
877.00	21084.00
877.43	20957.00
877.86	20805.00
878.29	20950.00
878.72	21008.00
879.15	20654.00
879.58	20755.00
880.01	20946.00
880.44	20674.00
880.87	20206.00
881.30	20787.00
881.73	21039.00
882.16	21180.00
882.59	21050.00
883.02	21249.00
883.45	21584.00
883.88	21216.00
884.31	21322.00
884.74	21090.00
885.17	20899.00
885.60	20380.00
886.03	20140.00
886.46	20129.00
886.88	20158.00
887.31	20471.00
887.74	20558.00
888.17	20728.00
888.60	20868.00
889.03	20870.00
889.46	20618.00
889.89	20634.00
890.32	20742.00
890.75	20587.00
891.17	20602.00
891.60	20410.00
892.03	20376.00
892.46	20054.00
892.89	19264.00
893.32	19037.00
893.75	19221.00
894.17	18612.00
894.60	17988.00
895.03	17611.00
895.46	17031.00
895.89	17169.00
896.32	16025.00
896.74	15941.00
897.17	15573.00
897.60	16092.00
898.03	16373.00
898.46	15455.00
898.89	13295.00
899.31	14527.00
899.74	15881.00
900.17	14817.00
900.60	14444.00
901.02	14695.00
901.45	14712.00
901.88	14947.00
902.31	14635.00
902.74	15249.00
903.16	16562.00
903.59	17515.00
904.02	17240.00
904.45	17433.00
904.87	17532.00
905.30	17166.00
905.73	17018.00
906.16	15762.00
906.58	15524.00
907.01	14622.00
907.44	14826.00
907.87	14464.00
908.29	14527.00
908.72	14246.00
909.15	14133.00
909.57	14103.00
910.00	14170.00
910.43	13907.00
910.86	14637.00
911.28	15105.00
911.71	14218.00
912.14	14919.00
912.56	14287.00
912.99	13085.00
913.42	12655.00
913.84	13890.00
914.27	14668.00
914.70	14480.00
915.12	12791.00
915.55	12919.00
915.98	14193.00
916.40	14954.00
916.83	14094.00
917.26	12817.00
917.68	13432.00
918.11	14107.00
918.53	14737.00
918.96	15095.00
919.39	14825.00
919.81	15565.00
920.24	15717.00
920.66	15278.00
921.09	14739.00
921.52	14365.00
921.94	14996.00
922.37	15018.00
922.79	14442.00
923.22	14207.00
923.65	14024.00
924.07	14020.00
924.50	14048.00
924.92	14179.00
925.35	14281.00
925.77	13770.00
926.20	14089.00
926.63	13996.00
927.05	13180.00
927.48	11972.00
927.90	11184.00
928.33	10708.00
928.75	10577.00
929.18	10047.00
929.60	9272.00
930.03	9137.00
930.45	8539.00
930.88	8186.00
931.30	7201.00
931.73	6706.00
932.15	6126.00
932.58	6385.00
933.00	5865.00
933.43	5185.00
933.85	4922.00
934.28	5298.00
934.70	6219.00
935.13	5557.00
935.55	5331.00
935.98	5645.00
936.40	5206.00
936.83	4977.00
937.25	5227.00
937.68	4960.00
938.10	5554.00
938.52	6500.00
938.95	7268.00
939.37	7162.00
939.80	6458.00
940.22	6153.00
940.65	5961.00
941.07	5977.00
941.49	6096.00
941.92	5968.00
942.34	5318.00
942.77	5496.00
943.19	5713.00
943.61	4901.00
944.04	4943.00
944.46	5669.00
944.89	5580.00
945.31	5153.00
945.73	5138.00
946.16	5501.00
946.58	5673.00
947.00	5755.00
947.43	5683.00
947.85	5566.00
948.27	6281.00
948.70	6383.00
949.12	5459.00
949.54	5122.00
949.97	6057.00
950.39	7099.00
950.81	6949.00
951.24	5997.00
951.66	5451.00
952.08	5725.00
952.51	6324.00
952.93	6837.00
953.35	6832.00
953.78	6477.00
954.20	6414.00
954.62	6681.00
955.04	6386.00
955.47	6859.00
955.89	6581.00
956.31	6712.00
956.74	7545.00
957.16	7978.00
957.58	7439.00
958.00	7387.00
958.43	6673.00
958.85	6686.00
959.27	7190.00
959.69	7786.00
960.12	7740.00
960.54	8296.00
960.96	8448.00
961.38	7917.00
961.80	7668.00
962.23	8259.00
962.65	9067.00
963.07	8423.00
963.49	8467.00
963.91	8537.00
964.34	8845.00
964.76	9052.00
965.18	8945.00
965.60	8521.00
966.02	8791.00
966.45	9502.00
966.87	10421.00
967.29	10354.00
967.71	10443.00
968.13	10701.00
968.55	10890.00
968.98	10979.00
969.40	10753.00
969.82	11001.00
970.24	11127.00
970.66	11030.00
971.08	10973.00
971.50	10742.00
971.92	10509.00
972.35	10545.00
972.77	10011.00
973.19	9822.00
973.61	10032.00
974.03	10287.00
974.45	10179.00
974.87	9905.00
975.29	9803.00
975.71	9807.00
976.13	10493.00
976.56	10595.00
976.98	10483.00
977.40	10288.00
977.82	10494.00
978.24	10334.00
978.66	10294.00
979.08	10617.00
979.50	10541.00
979.92	10843.00
980.34	11037.00
980.76	11090.00
981.18	11049.00
981.60	10818.00
982.02	10937.00
982.44	11049.00
982.86	11249.00
983.28	11134.00
983.70	11052.00
984.12	10852.00
984.54	11071.00
984.96	11053.00
985.38	11080.00
985.80	11043.00
986.22	10824.00
986.64	10940.00
987.06	10963.00
987.48	11088.00
987.90	10996.00
988.32	11046.00
988.74	11092.00
989.16	11062.00
989.58	10927.00
990.00	10984.00
990.42	10919.00
990.84	10898.00
991.26	10927.00
991.67	10726.00
992.09	10751.00
992.51	10827.00
992.93	10767.00
993.35	10791.00
993.77	10778.00
994.19	10727.00
994.61	10555.00
995.03	10668.00
995.45	10701.00
995.87	10688.00
996.28	10748.00
996.70	10808.00
997.12	10750.00
997.54	10917.00
997.96	10909.00
998.38	10846.00
998.80	10834.00
999.21	10971.00
999.63	10974.00
1000.05	10906.00
1000.47	10882.00
1000.89	10686.00
1001.31	10774.00
1001.72	10815.00
1002.14	10752.00
1002.56	10731.00
1002.98	10697.00
1003.40	10563.00
1003.82	10421.00
1004.23	10475.00
1004.65	10394.00
1005.07	10389.00
1005.49	10418.00
1005.90	10382.00
1006.32	10443.00
1006.74	10368.00
1007.16	10297.00
1007.58	10175.00
1007.99	10181.00
1008.41	10269.00
1008.83	10195.00
1009.25	10334.00
1009.66	10273.00
1010.08	10123.00
1010.50	10101.00
1010.92	10108.00
1011.33	10001.00
1011.75	9939.00
1012.17	9891.00
1012.58	9946.00
1013.00	9661.00
1013.42	9753.00
1013.84	9574.00
1014.25	9670.00
1014.67	9585.00
1015.09	9470.00
1015.50	9493.00
1015.92	9389.00
1016.34	9281.00
1016.75	9238.00
1017.17	9233.00
1017.59	9085.00
1018.00	8991.00
1018.42	8879.00
1018.84	8877.00
1019.25	8898.00
1019.67	8896.00
1020.09	8834.00
1020.50	8675.00
1020.92	8718.00
1021.33	8670.00
1021.75	8673.00
1022.17	8539.00
1022.58	8541.00
1023.00	8559.00
1023.42	8445.00
1023.83	8396.00
1024.25	8351.00
1024.66	8214.00
1025.08	8225.00
1025.50	8217.00
1025.91	8016.00
1026.33	8007.00
1026.74	7947.00
1027.16	7981.00
1027.57	7961.00
1027.99	7919.00
1028.40	7723.00
1028.82	7657.00
1029.24	7639.00
1029.65	7546.00
1030.07	7461.00
1030.48	7481.00
1030.90	7451.00
1031.31	7277.00
1031.73	7290.00
1032.14	7279.00
1032.56	7228.00
1032.97	7262.00
1033.39	7141.00
1033.80	7121.00
1034.22	7112.00
1034.63	7157.00
1035.05	7056.00
1035.46	6963.00
1035.88	6938.00
1036.29	6858.00
1036.71	6727.00
1037.12	6760.00
1037.54	6729.00
1037.95	6627.00
1038.36	6699.00
1038.78	6588.00
1039.19	6540.00
1039.61	6517.00
1040.02	6473.00
1040.44	6428.00
1040.85	6388.00
1041.27	6310.00
1041.68	6321.00
1042.09	6263.00
1042.51	6172.00
1042.92	6095.00
1043.34	6054.00
1043.75	5988.00
1044.16	6014.00
1044.58	5929.00
1044.99	5908.00
1045.40	5889.00
1045.82	5823.00
1046.23	5764.00
1046.65	5749.00
1047.06	5766.00
1047.47	5655.00
1047.89	5675.00
1048.30	5594.00
1048.71	5597.00
1049.13	5567.00
1049.54	5541.00
1049.95	5412.00
1050.37	5471.00
1050.78	5369.00
1051.19	5365.00
1051.61	5331.00
1052.02	5280.00
1052.43	5319.00
1052.85	5237.00
1053.26	5203.00
1053.67	5124.00
1054.08	5085.00
1054.50	5046.00
1054.91	5057.00
1055.32	4972.00
1055.74	4915.00
1056.15	4872.00
1056.56	4815.00
1056.97	4842.00
1057.39	4763.00
1057.80	4741.00
1058.21	4715.00
1058.62	4725.00
1059.03	4691.00
1059.45	4651.00
1059.86	4604.00
1060.27	4591.00
1060.68	4605.00
1061.10	4554.00
1061.51	4473.00
1061.92	4513.00
1062.33	4445.00
1062.74	4450.00
1063.16	4437.00
1063.57	4465.00
1063.98	4379.00
1064.39	4379.00
1064.80	4325.00
1065.21	4273.00
1065.63	4298.00
1066.04	4265.00
1066.45	4195.00
1066.86	4165.00
1067.27	4153.00
1067.68	4161.00
1068.10	4113.00
1068.51	4113.00
1068.92	4104.00
1069.33	4045.00
1069.74	4032.00
1070.15	4002.00
1070.56	3982.00
1070.97	3950.00
1071.38	3969.00
1071.80	3931.00
1072.21	3903.00
1072.62	3899.00
1073.03	3853.00
1073.44	3865.00
1073.85	3881.00
1074.26	3834.00
1074.67	3801.00
1075.08	3778.00
1075.49	3741.00
1075.90	3738.00
1076.31	3714.00
1076.72	3699.00
1077.13	3701.00
1077.54	3671.00
1077.95	3666.00
1078.36	3646.00
1078.77	3610.00
1079.19	3601.00
1079.60	3631.00
1080.01	3582.00
1080.42	3555.00
1080.83	3523.00
1081.24	3523.00
1081.65	3508.00
1082.05	3495.00
1082.46	3495.00
1082.87	3448.00
1083.28	3424.00
1083.69	3429.00
1084.10	3382.00
1084.51	3367.00
1084.92	3353.00
1085.33	3386.00
1085.74	3322.00
1086.15	3514.00
1086.56	3326.00
1086.97	3301.00
1087.38	3271.00
1087.79	3289.00
1088.20	3275.00
1088.61	3278.00
1089.02	3255.00
1089.42	3252.00
1089.83	3192.00
1090.24	3178.00
1090.65	3181.00
1091.06	3149.00
1091.47	3157.00
1091.88	3143.00
1092.29	3154.00
1092.70	3109.00
1093.10	3104.00
1093.51	3101.00
1093.92	3098.00
1094.33	3065.00
1094.74	3061.00
1095.15	3000.00
1095.55	2994.00
1095.96	2982.00
1096.37	2967.00
1096.78	2975.00
1097.19	2976.00
1097.60	2934.00
1098.00	2930.00
1098.41	2895.00
1098.82	2920.00
1099.23	2881.00
1099.64	2878.00
1100.04	2859.00
1100.45	2865.00
1100.86	2861.00
1101.27	2841.00
1101.67	2838.00
1102.08	2821.00
1102.49	2825.00
1102.90	2817.00
1103.31	2800.00
1103.71	2782.00
1104.12	2778.00
1104.53	2769.00
1104.93	2758.00
1105.34	2776.00
1105.75	2739.00
1106.16	2727.00
1106.56	2740.00
1106.97	2721.00
1107.38	2725.00
1107.78	2715.00
1108.19	2708.00
1108.60	2701.00
1109.01	2702.00
1109.41	2690.00
1109.82	2696.00
1110.23	2692.00
1110.63	2679.00
1111.04	2668.00
1111.45	2658.00
1111.85	2666.00
1112.26	2663.00
1112.67	2655.00
1113.07	2675.00
1113.48	2634.00
1113.88	2645.00
1114.29	2640.00
1114.70	2546.00
1115.10	2547.00
1115.51	2549.00
1115.92	2550.00
>>>>>End Processed Spectral Data<<<<<
