SpectraSuite Data File
++++++++++++++++++++++++++++++++++++
Date: Wed Jul 15 11:00:27 EEST 2020
User: CanSEE
Dark Spectrum Present: No
Reference Spectrum Present: No
Number of Sampled Component Spectra: 1
Spectrometers: MAYP112785
Integration Time (usec): 100000 (MAYP112785)
Spectra Averaged: 1 (MAYP112785)
Boxcar Smoothing: 0 (MAYP112785)
Correct for Electrical Dark: No (MAYP112785)
Strobe/Lamp Enabled: No (MAYP112785)
Correct for Detector Non-linearity: No (MAYP112785)
Correct for Stray Light: No (MAYP112785)
Number of Pixels in Processed Spectrum: 2068
>>>>>Begin Processed Spectral Data<<<<<
198.73	3398.00
199.20	2465.00
199.67	2565.00
200.14	2545.00
200.61	2625.00
201.08	2615.00
201.56	2623.00
202.03	2673.00
202.50	2671.00
202.97	2661.00
203.44	2663.00
203.91	2660.00
204.39	2648.00
204.86	2668.00
205.33	2655.00
205.80	2653.00
206.27	2665.00
206.74	2664.00
207.21	2661.00
207.69	2657.00
208.16	2670.00
208.63	2665.00
209.10	2669.00
209.57	2655.00
210.04	2674.00
210.51	2670.00
210.98	2665.00
211.46	2679.00
211.93	2673.00
212.40	2663.00
212.87	2667.00
213.34	2663.00
213.81	2664.00
214.28	2672.00
214.75	2665.00
215.23	2669.00
215.70	2662.00
216.17	2680.00
216.64	2663.00
217.11	2674.00
217.58	2663.00
218.05	2674.00
218.52	2666.00
218.99	2664.00
219.46	2666.00
219.94	2673.00
220.41	2668.00
220.88	2672.00
221.35	2677.00
221.82	2663.00
222.29	2670.00
222.76	2678.00
223.23	2674.00
223.70	2666.00
224.17	2678.00
224.64	2678.00
225.11	2662.00
225.58	2666.00
226.06	2666.00
226.53	2685.00
227.00	2684.00
227.47	2679.00
227.94	2660.00
228.41	2667.00
228.88	2678.00
229.35	2696.00
229.82	2672.00
230.29	2659.00
230.76	2675.00
231.23	2671.00
231.70	2671.00
232.17	2663.00
232.64	2678.00
233.11	2685.00
233.58	2659.00
234.05	2678.00
234.52	2678.00
235.00	2684.00
235.47	2677.00
235.94	2673.00
236.41	2676.00
236.88	2676.00
237.35	2664.00
237.82	2666.00
238.29	2678.00
238.76	2660.00
239.23	2686.00
239.70	3031.00
240.17	2663.00
240.64	2685.00
241.11	2695.00
241.58	2685.00
242.05	2678.00
242.52	2676.00
242.99	2683.00
243.46	2669.00
243.93	2663.00
244.40	2676.00
244.87	2673.00
245.34	2683.00
245.81	2726.00
246.28	2677.00
246.75	2676.00
247.22	2689.00
247.69	2665.00
248.16	2682.00
248.63	2688.00
249.10	2663.00
249.57	2694.00
250.04	2681.00
250.51	2680.00
250.98	2678.00
251.44	2682.00
251.91	2682.00
252.38	2677.00
252.85	2682.00
253.32	2674.00
253.79	2673.00
254.26	2686.00
254.73	2699.00
255.20	2687.00
255.67	2674.00
256.14	2689.00
256.61	2667.00
257.08	2688.00
257.55	2691.00
258.02	2677.00
258.49	2683.00
258.96	2664.00
259.43	2686.00
259.90	2685.00
260.36	2687.00
260.83	2682.00
261.30	2690.00
261.77	2696.00
262.24	2701.00
262.71	2690.00
263.18	2689.00
263.65	2671.00
264.12	2688.00
264.59	2674.00
265.06	2706.00
265.53	2676.00
265.99	2691.00
266.46	2680.00
266.93	2676.00
267.40	2686.00
267.87	2696.00
268.34	2688.00
268.81	2681.00
269.28	2693.00
269.75	2672.00
270.22	2683.00
270.68	2675.00
271.15	2684.00
271.62	2676.00
272.09	2694.00
272.56	2678.00
273.03	2676.00
273.50	2683.00
273.97	2676.00
274.43	2672.00
274.90	2707.00
275.37	2686.00
275.84	2682.00
276.31	2661.00
276.78	2669.00
277.25	2684.00
277.71	2673.00
278.18	2679.00
278.65	2692.00
279.12	2668.00
279.59	2683.00
280.06	2664.00
280.53	2684.00
280.99	2667.00
281.46	2682.00
281.93	2671.00
282.40	2674.00
282.87	2678.00
283.34	2694.00
283.80	2679.00
284.27	2687.00
284.74	2667.00
285.21	2668.00
285.68	2670.00
286.15	2678.00
286.61	2667.00
287.08	2672.00
287.55	2679.00
288.02	2687.00
288.49	2675.00
288.95	2674.00
289.42	2674.00
289.89	2688.00
290.36	2682.00
290.83	2674.00
291.29	2670.00
291.76	2673.00
292.23	2666.00
292.70	2673.00
293.17	2678.00
293.63	2668.00
294.10	2660.00
294.57	2660.00
295.04	2668.00
295.51	2670.00
295.97	2675.00
296.44	2670.00
296.91	2666.00
297.38	2681.00
297.84	2705.00
298.31	2660.00
298.78	2687.00
299.25	2676.00
299.71	2685.00
300.18	2684.00
300.65	2680.00
301.12	2678.00
301.58	2683.00
302.05	2704.00
302.52	2716.00
302.99	2727.00
303.45	2741.00
303.92	2755.00
304.39	2788.00
304.86	2806.00
305.32	2791.00
305.79	2833.00
306.26	2851.00
306.73	2853.00
307.19	2901.00
307.66	2927.00
308.13	2986.00
308.60	2986.00
309.06	3022.00
309.53	3015.00
310.00	3050.00
310.46	3121.00
310.93	3192.00
311.40	3296.00
311.87	3345.00
312.33	3360.00
312.80	3395.00
313.27	3474.00
313.73	3530.00
314.20	3534.00
314.67	3618.00
315.13	3598.00
315.60	3663.00
316.07	3677.00
316.53	3644.00
317.00	3875.00
317.47	3956.00
317.94	4091.00
318.40	3967.00
318.87	3946.00
319.34	4099.00
319.80	4188.00
320.27	4236.00
320.74	4351.00
321.20	4410.00
321.67	4317.00
322.14	4319.00
322.60	4299.00
323.07	4358.00
323.54	4380.00
324.00	4491.00
324.47	4637.00
324.93	4839.00
325.40	4855.00
325.87	5076.00
326.33	5316.00
326.80	5483.00
327.27	5519.00
327.73	5477.00
328.20	5407.00
328.67	5408.00
329.13	5531.00
329.60	5765.00
330.06	6056.00
330.53	6059.00
331.00	5843.00
331.46	5717.00
331.93	5765.00
332.40	5856.00
332.86	5878.00
333.33	5825.00
333.79	5812.00
334.26	5740.00
334.73	5782.00
335.19	5944.00
335.66	5897.00
336.12	5827.00
336.59	5695.00
337.06	5526.00
337.52	5589.00
337.99	5650.00
338.45	5922.00
338.92	6025.00
339.38	6136.00
339.85	6248.00
340.32	6365.00
340.78	6536.00
341.25	6437.00
341.71	6315.00
342.18	6370.00
342.64	6559.00
343.11	6574.00
343.58	6576.00
344.04	6540.00
344.51	6216.00
344.97	6023.00
345.44	6353.00
345.90	6709.00
346.37	6689.00
346.83	6629.00
347.30	6767.00
347.77	6884.00
348.23	6731.00
348.70	6821.00
349.16	6972.00
349.63	6987.00
350.09	7015.00
350.56	7237.00
351.02	7587.00
351.49	7421.00
351.95	7173.00
352.42	7259.00
352.88	7176.00
353.35	7217.00
353.81	7541.00
354.28	7789.00
354.74	7897.00
355.21	7893.00
355.67	7830.00
356.14	7601.00
356.60	7402.00
357.07	7073.00
357.53	6768.00
358.00	6751.00
358.46	6676.00
358.93	6457.00
359.39	6830.00
359.86	7551.00
360.32	7933.00
360.79	7800.00
361.25	7405.00
361.72	7354.00
362.18	7533.00
362.65	7582.00
363.11	7985.00
363.58	8047.00
364.04	7939.00
364.51	8185.00
364.97	8221.00
365.43	8310.00
365.90	8646.00
366.36	9140.00
366.83	9227.00
367.29	9073.00
367.76	8987.00
368.22	8994.00
368.69	8733.00
369.15	8906.00
369.61	9099.00
370.08	9336.00
370.54	9392.00
371.01	9106.00
371.47	8881.00
371.94	9117.00
372.40	9003.00
372.86	8428.00
373.33	8486.00
373.79	8293.00
374.26	7919.00
374.72	8238.00
375.19	8357.00
375.65	8469.00
376.11	9354.00
376.58	9501.00
377.04	9566.00
377.51	9819.00
377.97	10326.00
378.43	10649.00
378.90	10770.00
379.36	10278.00
379.82	9695.00
380.29	9511.00
380.75	9793.00
381.22	10048.00
381.68	9695.00
382.14	9003.00
382.61	8385.00
383.07	8006.00
383.53	7798.00
384.00	7909.00
384.46	8346.00
384.93	9096.00
385.39	9680.00
385.85	9732.00
386.32	9494.00
386.78	9461.00
387.24	9775.00
387.71	9833.00
388.17	9854.00
388.63	10061.00
389.10	10276.00
389.56	10698.00
390.02	11463.00
390.49	11779.00
390.95	11718.00
391.41	11727.00
391.88	11878.00
392.34	11282.00
392.80	10331.00
393.27	9429.00
393.73	8500.00
394.19	8633.00
394.66	9972.00
395.12	11125.00
395.58	11706.00
396.05	11879.00
396.51	11475.00
396.97	10397.00
397.43	9956.00
397.90	11155.00
398.36	13402.00
398.82	14976.00
399.29	15647.00
399.75	16153.00
400.21	16428.00
400.67	16666.00
401.14	16902.00
401.60	17139.00
402.06	17624.00
402.53	17552.00
402.99	17716.00
403.45	17421.00
403.91	17257.00
404.38	17317.00
404.84	17574.00
405.30	17053.00
405.76	17315.00
406.23	17352.00
406.69	17158.00
407.15	17302.00
407.61	17705.00
408.08	17721.00
408.54	17939.00
409.00	18383.00
409.46	18707.00
409.93	18644.00
410.39	18093.00
410.85	17812.00
411.31	18489.00
411.77	19300.00
412.24	19762.00
412.70	19908.00
413.16	19785.00
413.62	19614.00
414.09	19473.00
414.55	20093.00
415.01	20106.00
415.47	19963.00
415.93	20044.00
416.40	20090.00
416.86	20478.00
417.32	20332.00
417.78	20089.00
418.24	19701.00
418.71	19943.00
419.17	19938.00
419.63	20256.00
420.09	20481.00
420.55	20317.00
421.01	20495.00
421.48	21101.00
421.94	21123.00
422.40	20797.00
422.86	20469.00
423.32	20065.00
423.78	20357.00
424.25	20860.00
424.71	20837.00
425.17	20972.00
425.63	20724.00
426.09	20600.00
426.55	20708.00
427.01	20707.00
427.48	20695.00
427.94	20118.00
428.40	19950.00
428.86	20060.00
429.32	19275.00
429.78	18602.00
430.24	18273.00
430.71	17825.00
431.17	17991.00
431.63	19009.00
432.09	20727.00
432.55	22333.00
433.01	22178.00
433.47	21679.00
433.93	22492.00
434.39	22121.00
434.86	21826.00
435.32	22804.00
435.78	23646.00
436.24	23999.00
436.70	24221.00
437.16	24084.00
437.62	23713.00
438.08	23225.00
438.54	23149.00
439.00	22824.00
439.46	22991.00
439.93	23852.00
440.39	24680.00
440.85	24818.00
441.31	24931.00
441.77	25869.00
442.23	26227.00
442.69	26394.00
443.15	26666.00
443.61	26703.00
444.07	26875.00
444.53	26748.00
444.99	26749.00
445.45	27044.00
445.91	26797.00
446.37	26604.00
446.83	26901.00
447.29	27768.00
447.75	28182.00
448.21	28608.00
448.67	28707.00
449.14	29007.00
449.60	29458.00
450.06	29250.00
450.52	30036.00
450.98	30322.00
451.44	30488.00
451.90	30002.00
452.36	29478.00
452.82	29245.00
453.28	29076.00
453.74	28688.00
454.20	29216.00
454.66	29752.00
455.12	29927.00
455.58	29987.00
456.04	30084.00
456.50	30672.00
456.96	31110.00
457.42	30840.00
457.88	30943.00
458.33	30821.00
458.79	30598.00
459.25	30390.00
459.71	30763.00
460.17	30881.00
460.63	30865.00
461.09	31406.00
461.55	31845.00
462.01	32002.00
462.47	32193.00
462.93	32032.00
463.39	32028.00
463.85	32037.00
464.31	31743.00
464.77	31530.00
465.23	31722.00
465.69	31467.00
466.15	31441.00
466.61	31725.00
467.07	31480.00
467.52	31283.00
467.98	31742.00
468.44	32059.00
468.90	31913.00
469.36	32072.00
469.82	32060.00
470.28	32039.00
470.74	31801.00
471.20	32135.00
471.66	32402.00
472.12	32754.00
472.57	33148.00
473.03	33264.00
473.49	33317.00
473.95	33051.00
474.41	33320.00
474.87	33530.00
475.33	33664.00
475.79	33366.00
476.25	33356.00
476.70	33499.00
477.16	33580.00
477.62	33664.00
478.08	34342.00
478.54	34666.00
479.00	34752.00
479.46	34482.00
479.91	34649.00
480.37	34873.00
480.83	35010.00
481.29	35100.00
481.75	35102.00
482.21	35335.00
482.67	35380.00
483.12	34916.00
483.58	34859.00
484.04	34712.00
484.50	34389.00
484.96	33554.00
485.42	32662.00
485.87	31978.00
486.33	31314.00
486.79	30429.00
487.25	31143.00
487.71	32595.00
488.16	33132.00
488.62	33913.00
489.08	34573.00
489.54	34366.00
490.00	34780.00
490.45	35240.00
490.91	35548.00
491.37	34896.00
491.83	34688.00
492.29	34534.00
492.74	34373.00
493.20	34465.00
493.66	35237.00
494.12	35685.00
494.57	35694.00
495.03	36047.00
495.49	36129.00
495.95	36434.00
496.40	36055.00
496.86	36076.00
497.32	36177.00
497.78	35730.00
498.23	35728.00
498.69	35485.00
499.15	35256.00
499.61	35202.00
500.06	35548.00
500.52	35098.00
500.98	34713.00
501.44	34212.00
501.89	34503.00
502.35	34626.00
502.81	35005.00
503.27	35019.00
503.72	35353.00
504.18	35375.00
504.64	35208.00
505.09	35354.00
505.55	36254.00
506.01	36566.00
506.47	36657.00
506.92	36692.00
507.38	36098.00
507.84	35816.00
508.29	36013.00
508.75	36165.00
509.21	36293.00
509.66	36683.00
510.12	36844.00
510.58	36840.00
511.03	37053.00
511.49	37160.00
511.95	37210.00
512.40	37230.00
512.86	37086.00
513.32	36550.00
513.77	36322.00
514.23	36422.00
514.69	36377.00
515.14	36443.00
515.60	36561.00
516.06	35905.00
516.51	34875.00
516.97	34229.00
517.43	33701.00
517.88	32856.00
518.34	33809.00
518.79	35042.00
519.25	34988.00
519.71	35714.00
520.16	36404.00
520.62	36939.00
521.08	37389.00
521.53	37329.00
521.99	37613.00
522.44	37637.00
522.90	37549.00
523.36	37549.00
523.81	37844.00
524.27	38374.00
524.72	38809.00
525.18	38968.00
525.64	38467.00
526.09	37368.00
526.55	36758.00
527.00	36599.00
527.46	36225.00
527.92	36740.00
528.37	38078.00
528.83	39309.00
529.28	39318.00
529.74	39553.00
530.19	39872.00
530.65	39732.00
531.10	39873.00
531.56	40059.00
532.02	39665.00
532.47	39121.00
532.93	38788.00
533.38	38539.00
533.84	38500.00
534.29	39209.00
534.75	39560.00
535.20	39874.00
535.66	40309.00
536.11	40208.00
536.57	40131.00
537.02	39811.00
537.48	39738.00
537.93	39418.00
538.39	39706.00
538.84	39774.00
539.30	39579.00
539.75	39108.00
540.21	38873.00
540.66	38423.00
541.12	38615.00
541.57	38900.00
542.03	39054.00
542.48	39460.00
542.94	39696.00
543.39	39505.00
543.85	39848.00
544.30	39872.00
544.76	40168.00
545.21	40390.00
545.67	40376.00
546.12	40136.00
546.58	40289.00
547.03	40459.00
547.49	40101.00
547.94	40014.00
548.40	40165.00
548.85	40248.00
549.30	40724.00
549.76	40899.00
550.21	40461.00
550.67	40723.00
551.12	40598.00
551.58	40840.00
552.03	40993.00
552.48	40767.00
552.94	40720.00
553.39	40805.00
553.85	40846.00
554.30	40904.00
554.76	41425.00
555.21	41593.00
555.66	41235.00
556.12	40972.00
556.57	40989.00
557.03	40427.00
557.48	40510.00
557.93	40141.00
558.39	40190.00
558.84	39676.00
559.30	40084.00
559.75	39341.00
560.20	39863.00
560.66	40547.00
561.11	40888.00
561.56	40568.00
562.02	40772.00
562.47	40650.00
562.92	40893.00
563.38	40767.00
563.83	40960.00
564.29	40964.00
564.74	40914.00
565.19	40669.00
565.65	40459.00
566.10	40310.00
566.55	40169.00
567.01	40352.00
567.46	40682.00
567.91	41074.00
568.37	40792.00
568.82	40441.00
569.27	40431.00
569.73	40241.00
570.18	40196.00
570.63	40139.00
571.08	39762.00
571.54	40029.00
571.99	40325.00
572.44	40508.00
572.90	41224.00
573.35	41422.00
573.80	41443.00
574.26	41068.00
574.71	41242.00
575.16	40819.00
575.61	40694.00
576.07	40479.00
576.52	40588.00
576.97	40813.00
577.42	40781.00
577.88	41054.00
578.33	40640.00
578.78	40486.00
579.24	40517.00
579.69	40820.00
580.14	41219.00
580.59	41602.00
581.05	41616.00
581.50	42035.00
581.95	42050.00
582.40	42218.00
582.85	42293.00
583.31	42536.00
583.76	42457.00
584.21	42538.00
584.66	42532.00
585.12	42130.00
585.57	41846.00
586.02	41674.00
586.47	41235.00
586.92	41434.00
587.38	41745.00
587.83	41399.00
588.28	40720.00
588.73	39664.00
589.18	38094.00
589.64	37259.00
590.09	37593.00
590.54	38493.00
590.99	39542.00
591.44	40191.00
591.90	40354.00
592.35	40377.00
592.80	40269.00
593.25	40663.00
593.70	40548.00
594.15	40314.00
594.61	39964.00
595.06	40089.00
595.51	40042.00
595.96	40462.00
596.41	40755.00
596.86	40988.00
597.31	41122.00
597.77	40894.00
598.22	40638.00
598.67	40518.00
599.12	40743.00
599.57	40928.00
600.02	41089.00
600.47	41098.00
600.92	40795.00
601.38	40950.00
601.83	40847.00
602.28	40376.00
602.73	40821.00
603.18	41206.00
603.63	41871.00
604.08	41814.00
604.53	42104.00
604.98	42085.00
605.43	41851.00
605.89	41868.00
606.34	41901.00
606.79	41719.00
607.24	42217.00
607.69	41954.00
608.14	42077.00
608.59	41782.00
609.04	41704.00
609.49	41926.00
609.94	41511.00
610.39	41568.00
610.84	41674.00
611.29	41563.00
611.74	41811.00
612.19	41737.00
612.64	41505.00
613.10	41610.00
613.55	41337.00
614.00	41105.00
614.45	41074.00
614.90	41305.00
615.35	41524.00
615.80	41266.00
616.25	40606.00
616.70	40271.00
617.15	40296.00
617.60	40619.00
618.05	41053.00
618.50	41353.00
618.95	41674.00
619.40	41745.00
619.85	41710.00
620.30	41936.00
620.75	42260.00
621.20	42012.00
621.65	41795.00
622.10	41618.00
622.55	41569.00
623.00	41287.00
623.45	40981.00
623.89	41112.00
624.34	40746.00
624.79	40913.00
625.24	40561.00
625.69	40451.00
626.14	40363.00
626.59	40744.00
627.04	41081.00
627.49	40910.00
627.94	40224.00
628.39	39993.00
628.84	39784.00
629.29	40417.00
629.74	40456.00
630.19	40153.00
630.64	40249.00
631.09	40537.00
631.53	40554.00
631.98	40730.00
632.43	40746.00
632.88	41086.00
633.33	41360.00
633.78	40916.00
634.23	41169.00
634.68	41184.00
635.13	41340.00
635.58	41597.00
636.02	41622.00
636.47	41450.00
636.92	41616.00
637.37	42064.00
637.82	42156.00
638.27	42428.00
638.72	42429.00
639.16	42440.00
639.61	42100.00
640.06	42156.00
640.51	41672.00
640.96	41702.00
641.41	41708.00
641.86	41772.00
642.30	41959.00
642.75	41968.00
643.20	41757.00
643.65	42223.00
644.10	41826.00
644.55	42011.00
644.99	41760.00
645.44	41759.00
645.89	41506.00
646.34	41154.00
646.79	40995.00
647.23	40725.00
647.68	40561.00
648.13	40342.00
648.58	40378.00
649.03	40408.00
649.47	39881.00
649.92	39657.00
650.37	39994.00
650.82	40849.00
651.27	41053.00
651.71	40834.00
652.16	40549.00
652.61	40658.00
653.06	41131.00
653.50	41430.00
653.95	41308.00
654.40	40876.00
654.85	40550.00
655.29	39773.00
655.74	39013.00
656.19	36839.00
656.64	34894.00
657.08	35547.00
657.53	37104.00
657.98	39342.00
658.43	40267.00
658.87	40816.00
659.32	40714.00
659.77	40819.00
660.21	40899.00
660.66	41240.00
661.11	41342.00
661.56	41491.00
662.00	41790.00
662.45	41931.00
662.90	41648.00
663.34	41537.00
663.79	41377.00
664.24	41424.00
664.68	41393.00
665.13	41518.00
665.58	41651.00
666.02	41438.00
666.47	41416.00
666.92	41264.00
667.36	41450.00
667.81	41409.00
668.26	41425.00
668.70	41629.00
669.15	41639.00
669.60	41649.00
670.04	41360.00
670.49	41181.00
670.94	41216.00
671.38	41428.00
671.83	40928.00
672.28	40941.00
672.72	40957.00
673.17	40857.00
673.61	40986.00
674.06	41186.00
674.51	41072.00
674.95	40964.00
675.40	40895.00
675.85	41060.00
676.29	41241.00
676.74	41116.00
677.18	41017.00
677.63	40778.00
678.07	40929.00
678.52	40940.00
678.97	40911.00
679.41	40773.00
679.86	40880.00
680.30	40642.00
680.75	40766.00
681.20	40618.00
681.64	40501.00
682.09	40529.00
682.53	40648.00
682.98	40398.00
683.42	40230.00
683.87	40422.00
684.31	39743.00
684.76	39776.00
685.20	39641.00
685.65	39694.00
686.10	39314.00
686.54	38558.00
686.99	34861.00
687.43	31164.00
687.88	30156.00
688.32	31928.00
688.77	33412.00
689.21	34037.00
689.66	34196.00
690.10	33939.00
690.55	34497.00
690.99	35145.00
691.44	35898.00
691.88	36317.00
692.33	36761.00
692.77	36708.00
693.22	36517.00
693.66	36061.00
694.11	35705.00
694.55	35376.00
695.00	35567.00
695.44	35813.00
695.88	36106.00
696.33	36464.00
696.77	37252.00
697.22	37979.00
697.66	38302.00
698.11	37616.00
698.55	37372.00
699.00	36878.00
699.44	36494.00
699.88	36419.00
700.33	36253.00
700.77	36086.00
701.22	36095.00
701.66	35857.00
702.11	35656.00
702.55	35992.00
702.99	35633.00
703.44	36212.00
703.88	36860.00
704.33	36739.00
704.77	37420.00
705.21	37231.00
705.66	36925.00
706.10	36892.00
706.54	36801.00
706.99	36843.00
707.43	37168.00
707.88	37140.00
708.32	37200.00
708.76	37207.00
709.21	37106.00
709.65	37071.00
710.09	37173.00
710.54	37506.00
710.98	37259.00
711.42	37088.00
711.87	37062.00
712.31	36750.00
712.76	37117.00
713.20	36801.00
713.64	36653.00
714.08	36805.00
714.53	36685.00
714.97	36431.00
715.41	35551.00
715.86	35569.00
716.30	35114.00
716.74	33856.00
717.19	31617.00
717.63	29425.00
718.07	28515.00
718.52	27888.00
718.96	26961.00
719.40	26579.00
719.84	26322.00
720.29	26334.00
720.73	26604.00
721.17	28059.00
721.62	30366.00
722.06	32128.00
722.50	32654.00
722.94	32123.00
723.39	31227.00
723.83	29039.00
724.27	28264.00
724.71	27895.00
725.16	28269.00
725.60	27953.00
726.04	28578.00
726.48	28674.00
726.93	28860.00
727.37	29517.00
727.81	28481.00
728.25	28242.00
728.69	29047.00
729.14	29108.00
729.58	28203.00
730.02	28693.00
730.46	29009.00
730.90	29125.00
731.35	29313.00
731.79	29500.00
732.23	30311.00
732.67	31587.00
733.11	31916.00
733.56	32284.00
734.00	32614.00
734.44	33261.00
734.88	33226.00
735.32	32923.00
735.76	32681.00
736.21	32829.00
736.65	32621.00
737.09	32534.00
737.53	32768.00
737.97	33184.00
738.41	33295.00
738.85	32667.00
739.30	32561.00
739.74	32521.00
740.18	32965.00
740.62	33443.00
741.06	33276.00
741.50	33111.00
741.94	32957.00
742.38	32878.00
742.83	33000.00
743.27	33342.00
743.71	33581.00
744.15	33689.00
744.59	33301.00
745.03	33303.00
745.47	33575.00
745.91	34011.00
746.35	33762.00
746.79	33990.00
747.23	34046.00
747.68	33972.00
748.12	34017.00
748.56	33799.00
749.00	33861.00
749.44	33612.00
749.88	33447.00
750.32	33615.00
750.76	33897.00
751.20	33690.00
751.64	33765.00
752.08	34027.00
752.52	33868.00
752.96	33667.00
753.40	33626.00
753.84	33666.00
754.28	33701.00
754.72	33846.00
755.16	33826.00
755.60	33927.00
756.04	33839.00
756.48	33827.00
756.92	33855.00
757.36	33518.00
757.80	33525.00
758.24	33197.00
758.68	32793.00
759.12	31781.00
759.56	28896.00
760.00	20969.00
760.44	13398.00
760.88	9387.00
761.32	9188.00
761.76	12515.00
762.20	17790.00
762.64	18545.00
763.08	16690.00
763.52	15236.00
763.96	15603.00
764.40	16598.00
764.84	18488.00
765.28	20346.00
765.72	22214.00
766.15	23839.00
766.59	25172.00
767.03	27149.00
767.47	28789.00
767.91	29813.00
768.35	30337.00
768.79	30880.00
769.23	31109.00
769.67	31331.00
770.11	31342.00
770.55	31554.00
770.98	32224.00
771.42	32109.00
771.86	32060.00
772.30	32402.00
772.74	32399.00
773.18	32294.00
773.62	32283.00
774.06	32091.00
774.49	32091.00
774.93	31472.00
775.37	31402.00
775.81	31617.00
776.25	31840.00
776.69	32112.00
777.13	32236.00
777.56	31996.00
778.00	31925.00
778.44	31531.00
778.88	31559.00
779.32	31461.00
779.76	31304.00
780.19	31058.00
780.63	30929.00
781.07	30941.00
781.51	31193.00
781.95	31165.00
782.38	31450.00
782.82	31362.00
783.26	31303.00
783.70	30773.00
784.14	30829.00
784.57	30927.00
785.01	30678.00
785.45	30380.00
785.89	30114.00
786.32	30162.00
786.76	30126.00
787.20	29888.00
787.64	29916.00
788.07	29749.00
788.51	29863.00
788.95	29852.00
789.39	29350.00
789.82	28852.00
790.26	28848.00
790.70	28696.00
791.14	28623.00
791.57	28250.00
792.01	28029.00
792.45	28062.00
792.88	27925.00
793.32	27811.00
793.76	28210.00
794.20	28319.00
794.63	28550.00
795.07	28295.00
795.51	28617.00
795.94	28224.00
796.38	27276.00
796.82	27410.00
797.25	27498.00
797.69	27552.00
798.13	27741.00
798.56	27659.00
799.00	27727.00
799.44	27742.00
799.87	27586.00
800.31	27359.00
800.75	27339.00
801.18	27191.00
801.62	27256.00
802.06	27277.00
802.49	26986.00
802.93	26565.00
803.37	26410.00
803.80	26531.00
804.24	26524.00
804.67	26356.00
805.11	26252.00
805.55	26777.00
805.98	27049.00
806.42	27161.00
806.85	27336.00
807.29	27115.00
807.73	26769.00
808.16	26575.00
808.60	26297.00
809.03	26002.00
809.47	25905.00
809.91	25369.00
810.34	25299.00
810.78	25527.00
811.21	25332.00
811.65	24928.00
812.08	24951.00
812.52	24634.00
812.96	24328.00
813.39	23303.00
813.83	22259.00
814.26	21972.00
814.70	21694.00
815.13	20607.00
815.57	20278.00
816.00	20391.00
816.44	19441.00
816.87	18911.00
817.31	19645.00
817.74	20411.00
818.18	19401.00
818.61	19761.00
819.05	20521.00
819.48	20590.00
819.92	20390.00
820.35	20544.00
820.79	22461.00
821.22	22920.00
821.66	22199.00
822.09	21748.00
822.53	20517.00
822.96	17842.00
823.40	16594.00
823.83	18851.00
824.27	20885.00
824.70	21725.00
825.13	22923.00
825.57	22993.00
826.00	22212.00
826.44	22044.00
826.87	22805.00
827.31	22232.00
827.74	20838.00
828.17	20052.00
828.61	20689.00
829.04	20672.00
829.48	20587.00
829.91	20850.00
830.35	21309.00
830.78	21120.00
831.21	21828.00
831.65	21827.00
832.08	21325.00
832.52	21423.00
832.95	22042.00
833.38	21565.00
833.82	21421.00
834.25	21451.00
834.68	21916.00
835.12	22141.00
835.55	22338.00
835.98	22126.00
836.42	22158.00
836.85	22472.00
837.29	22736.00
837.72	22830.00
838.15	23141.00
838.59	23141.00
839.02	23108.00
839.45	23632.00
839.89	23510.00
840.32	23355.00
840.75	23296.00
841.18	22837.00
841.62	22945.00
842.05	22723.00
842.48	22784.00
842.92	23065.00
843.35	23002.00
843.78	22815.00
844.22	22749.00
844.65	23201.00
845.08	23313.00
845.51	23702.00
845.95	23802.00
846.38	23680.00
846.81	23429.00
847.24	23055.00
847.68	22887.00
848.11	22748.00
848.54	22667.00
848.97	22539.00
849.41	22463.00
849.84	21285.00
850.27	20961.00
850.70	22003.00
851.14	22478.00
851.57	22569.00
852.00	22825.00
852.43	22858.00
852.87	23005.00
853.30	22743.00
853.73	21931.00
854.16	19571.00
854.59	18779.00
855.03	20156.00
855.46	21322.00
855.89	21586.00
856.32	22126.00
856.75	22398.00
857.18	22479.00
857.62	22680.00
858.05	22569.00
858.48	22570.00
858.91	22674.00
859.34	22759.00
859.77	22855.00
860.21	22936.00
860.64	22715.00
861.07	22892.00
861.50	22468.00
861.93	22436.00
862.36	22137.00
862.79	22241.00
863.23	22282.00
863.66	22329.00
864.09	22281.00
864.52	22236.00
864.95	21952.00
865.38	21885.00
865.81	21213.00
866.24	19332.00
866.67	19626.00
867.10	21092.00
867.54	21876.00
867.97	21979.00
868.40	22024.00
868.83	21727.00
869.26	21524.00
869.69	21617.00
870.12	21683.00
870.55	21612.00
870.98	21462.00
871.41	21448.00
871.84	21511.00
872.27	21576.00
872.70	21624.00
873.13	21559.00
873.56	21467.00
873.99	21242.00
874.42	21441.00
874.85	21659.00
875.28	21583.00
875.71	21481.00
876.14	21508.00
876.57	21325.00
877.00	21128.00
877.43	21033.00
877.86	20919.00
878.29	20948.00
878.72	20880.00
879.15	20766.00
879.58	20742.00
880.01	20948.00
880.44	20571.00
880.87	20331.00
881.30	20715.00
881.73	21153.00
882.16	21095.00
882.59	21138.00
883.02	21440.00
883.45	21474.00
883.88	21330.00
884.31	21134.00
884.74	20872.00
885.17	20962.00
885.60	20659.00
886.03	20105.00
886.46	20116.00
886.88	20049.00
887.31	20556.00
887.74	20606.00
888.17	20568.00
888.60	20727.00
889.03	20737.00
889.46	20639.00
889.89	20678.00
890.32	20903.00
890.75	20755.00
891.17	20794.00
891.60	20541.00
892.03	20338.00
892.46	19873.00
892.89	19242.00
893.32	18993.00
893.75	19053.00
894.17	18631.00
894.60	17981.00
895.03	17474.00
895.46	17117.00
895.89	17144.00
896.32	15906.00
896.74	15882.00
897.17	15603.00
897.60	15997.00
898.03	16095.00
898.46	15535.00
898.89	13176.00
899.31	14471.00
899.74	15830.00
900.17	14905.00
900.60	14504.00
901.02	14710.00
901.45	14831.00
901.88	14997.00
902.31	14659.00
902.74	15308.00
903.16	16516.00
903.59	17512.00
904.02	17377.00
904.45	17447.00
904.87	17408.00
905.30	17102.00
905.73	16963.00
906.16	15796.00
906.58	15518.00
907.01	14545.00
907.44	14844.00
907.87	14327.00
908.29	14575.00
908.72	14080.00
909.15	14121.00
909.57	14169.00
910.00	14179.00
910.43	13868.00
910.86	14592.00
911.28	15032.00
911.71	14243.00
912.14	14973.00
912.56	14533.00
912.99	13108.00
913.42	12610.00
913.84	13906.00
914.27	14779.00
914.70	14411.00
915.12	12849.00
915.55	12938.00
915.98	14185.00
916.40	14917.00
916.83	14239.00
917.26	12805.00
917.68	13444.00
918.11	14012.00
918.53	14793.00
918.96	15007.00
919.39	14926.00
919.81	15567.00
920.24	15724.00
920.66	15261.00
921.09	14699.00
921.52	14437.00
921.94	15051.00
922.37	15019.00
922.79	14482.00
923.22	14360.00
923.65	14009.00
924.07	13968.00
924.50	14055.00
924.92	14161.00
925.35	14269.00
925.77	13871.00
926.20	13964.00
926.63	14014.00
927.05	13265.00
927.48	11945.00
927.90	11148.00
928.33	10679.00
928.75	10666.00
929.18	10033.00
929.60	9339.00
930.03	9001.00
930.45	8566.00
930.88	8142.00
931.30	7217.00
931.73	6669.00
932.15	6183.00
932.58	6284.00
933.00	5929.00
933.43	5201.00
933.85	4929.00
934.28	5306.00
934.70	6223.00
935.13	5628.00
935.55	5307.00
935.98	5660.00
936.40	5209.00
936.83	4932.00
937.25	5107.00
937.68	4975.00
938.10	5570.00
938.52	6504.00
938.95	7237.00
939.37	7122.00
939.80	6381.00
940.22	6241.00
940.65	5916.00
941.07	6042.00
941.49	6128.00
941.92	5998.00
942.34	5251.00
942.77	5458.00
943.19	5792.00
943.61	4915.00
944.04	4958.00
944.46	5679.00
944.89	5600.00
945.31	5145.00
945.73	5105.00
946.16	5483.00
946.58	5633.00
947.00	5809.00
947.43	5673.00
947.85	5598.00
948.27	6235.00
948.70	6402.00
949.12	5451.00
949.54	5169.00
949.97	6043.00
950.39	7088.00
950.81	6975.00
951.24	5944.00
951.66	5485.00
952.08	5679.00
952.51	6299.00
952.93	6782.00
953.35	6887.00
953.78	6405.00
954.20	6413.00
954.62	6634.00
955.04	6390.00
955.47	6852.00
955.89	6591.00
956.31	6677.00
956.74	7553.00
957.16	8099.00
957.58	7464.00
958.00	7354.00
958.43	6676.00
958.85	6715.00
959.27	7245.00
959.69	7754.00
960.12	7720.00
960.54	8324.00
960.96	8513.00
961.38	7912.00
961.80	7661.00
962.23	8195.00
962.65	9049.00
963.07	8329.00
963.49	8473.00
963.91	8465.00
964.34	8752.00
964.76	9100.00
965.18	9011.00
965.60	8473.00
966.02	8732.00
966.45	9438.00
966.87	10451.00
967.29	10435.00
967.71	10455.00
968.13	10767.00
968.55	10921.00
968.98	10939.00
969.40	10769.00
969.82	10998.00
970.24	11230.00
970.66	11028.00
971.08	10927.00
971.50	10832.00
971.92	10401.00
972.35	10611.00
972.77	10079.00
973.19	9974.00
973.61	10107.00
974.03	10312.00
974.45	10118.00
974.87	9808.00
975.29	9749.00
975.71	9725.00
976.13	10411.00
976.56	10585.00
976.98	10510.00
977.40	10331.00
977.82	10509.00
978.24	10349.00
978.66	10451.00
979.08	10584.00
979.50	10492.00
979.92	10912.00
980.34	11051.00
980.76	11045.00
981.18	11071.00
981.60	10776.00
982.02	10946.00
982.44	11015.00
982.86	11184.00
983.28	11171.00
983.70	10985.00
984.12	10790.00
984.54	11005.00
984.96	11033.00
985.38	11074.00
985.80	10973.00
986.22	10785.00
986.64	10836.00
987.06	11016.00
987.48	11001.00
987.90	11223.00
988.32	11115.00
988.74	10945.00
989.16	11059.00
989.58	11047.00
990.00	11053.00
990.42	10948.00
990.84	10926.00
991.26	10935.00
991.67	10835.00
992.09	10749.00
992.51	10873.00
992.93	10952.00
993.35	10698.00
993.77	10764.00
994.19	10696.00
994.61	10641.00
995.03	10645.00
995.45	10679.00
995.87	10651.00
996.28	10710.00
996.70	10795.00
997.12	10915.00
997.54	10899.00
997.96	10981.00
998.38	10901.00
998.80	10952.00
999.21	10935.00
999.63	11016.00
1000.05	10834.00
1000.47	10841.00
1000.89	10776.00
1001.31	10811.00
1001.72	10806.00
1002.14	10800.00
1002.56	10733.00
1002.98	10573.00
1003.40	10637.00
1003.82	10436.00
1004.23	10377.00
1004.65	10454.00
1005.07	10580.00
1005.49	10424.00
1005.90	10407.00
1006.32	10329.00
1006.74	10368.00
1007.16	10302.00
1007.58	10295.00
1007.99	10121.00
1008.41	10262.00
1008.83	10230.00
1009.25	10202.00
1009.66	10194.00
1010.08	10107.00
1010.50	10123.00
1010.92	10054.00
1011.33	9993.00
1011.75	10009.00
1012.17	10010.00
1012.58	9926.00
1013.00	9814.00
1013.42	9620.00
1013.84	9672.00
1014.25	9636.00
1014.67	9542.00
1015.09	9528.00
1015.50	9501.00
1015.92	9436.00
1016.34	9337.00
1016.75	9200.00
1017.17	9234.00
1017.59	9080.00
1018.00	9021.00
1018.42	8914.00
1018.84	8920.00
1019.25	8919.00
1019.67	8749.00
1020.09	8783.00
1020.50	8701.00
1020.92	8722.00
1021.33	8661.00
1021.75	8641.00
1022.17	8654.00
1022.58	8455.00
1023.00	8514.00
1023.42	8432.00
1023.83	8397.00
1024.25	8296.00
1024.66	8319.00
1025.08	8137.00
1025.50	8174.00
1025.91	8126.00
1026.33	8127.00
1026.74	7983.00
1027.16	7930.00
1027.57	7978.00
1027.99	7789.00
1028.40	7787.00
1028.82	7758.00
1029.24	7693.00
1029.65	7586.00
1030.07	7583.00
1030.48	7531.00
1030.90	7433.00
1031.31	7303.00
1031.73	7339.00
1032.14	7326.00
1032.56	7240.00
1032.97	7203.00
1033.39	7143.00
1033.80	7216.00
1034.22	7085.00
1034.63	7132.00
1035.05	7029.00
1035.46	6995.00
1035.88	6855.00
1036.29	6929.00
1036.71	6885.00
1037.12	6778.00
1037.54	6798.00
1037.95	6694.00
1038.36	6668.00
1038.78	6551.00
1039.19	6581.00
1039.61	6441.00
1040.02	6425.00
1040.44	6443.00
1040.85	6368.00
1041.27	6308.00
1041.68	6321.00
1042.09	6202.00
1042.51	6150.00
1042.92	6161.00
1043.34	6094.00
1043.75	5975.00
1044.16	5963.00
1044.58	5925.00
1044.99	5869.00
1045.40	5865.00
1045.82	5817.00
1046.23	5828.00
1046.65	5781.00
1047.06	5739.00
1047.47	5666.00
1047.89	5689.00
1048.30	5602.00
1048.71	5609.00
1049.13	5574.00
1049.54	5518.00
1049.95	5455.00
1050.37	5460.00
1050.78	5440.00
1051.19	5346.00
1051.61	5335.00
1052.02	5278.00
1052.43	5333.00
1052.85	5257.00
1053.26	5256.00
1053.67	5182.00
1054.08	5153.00
1054.50	5077.00
1054.91	5049.00
1055.32	5014.00
1055.74	4927.00
1056.15	4945.00
1056.56	4826.00
1056.97	4862.00
1057.39	4789.00
1057.80	4723.00
1058.21	4711.00
1058.62	4739.00
1059.03	4699.00
1059.45	4625.00
1059.86	4647.00
1060.27	4627.00
1060.68	4559.00
1061.10	4513.00
1061.51	4541.00
1061.92	4521.00
1062.33	4468.00
1062.74	4436.00
1063.16	4466.00
1063.57	4441.00
1063.98	4355.00
1064.39	4393.00
1064.80	4364.00
1065.21	4320.00
1065.63	4292.00
1066.04	4236.00
1066.45	4189.00
1066.86	4177.00
1067.27	4142.00
1067.68	4136.00
1068.10	4140.00
1068.51	4103.00
1068.92	4088.00
1069.33	4008.00
1069.74	3988.00
1070.15	4003.00
1070.56	3963.00
1070.97	3971.00
1071.38	3968.00
1071.80	3925.00
1072.21	3896.00
1072.62	3853.00
1073.03	3866.00
1073.44	3850.00
1073.85	3836.00
1074.26	3846.00
1074.67	3781.00
1075.08	3767.00
1075.49	3775.00
1075.90	3735.00
1076.31	3705.00
1076.72	3698.00
1077.13	3706.00
1077.54	3671.00
1077.95	3683.00
1078.36	3646.00
1078.77	3633.00
1079.19	3610.00
1079.60	3599.00
1080.01	3592.00
1080.42	3540.00
1080.83	3511.00
1081.24	3515.00
1081.65	3493.00
1082.05	3481.00
1082.46	3485.00
1082.87	3471.00
1083.28	3422.00
1083.69	3419.00
1084.10	3404.00
1084.51	3386.00
1084.92	3381.00
1085.33	3371.00
1085.74	3348.00
1086.15	3526.00
1086.56	3323.00
1086.97	3305.00
1087.38	3303.00
1087.79	3298.00
1088.20	3251.00
1088.61	3300.00
1089.02	3291.00
1089.42	3239.00
1089.83	3215.00
1090.24	3203.00
1090.65	3170.00
1091.06	3190.00
1091.47	3169.00
1091.88	3174.00
1092.29	3133.00
1092.70	3107.00
1093.10	3097.00
1093.51	3094.00
1093.92	3104.00
1094.33	3061.00
1094.74	3037.00
1095.15	3011.00
1095.55	2994.00
1095.96	3005.00
1096.37	2961.00
1096.78	2982.00
1097.19	2951.00
1097.60	2947.00
1098.00	2928.00
1098.41	2915.00
1098.82	2908.00
1099.23	2909.00
1099.64	2847.00
1100.04	2861.00
1100.45	2847.00
1100.86	2870.00
1101.27	2835.00
1101.67	2834.00
1102.08	2833.00
1102.49	2813.00
1102.90	2799.00
1103.31	2776.00
1103.71	2778.00
1104.12	2787.00
1104.53	2767.00
1104.93	2771.00
1105.34	2760.00
1105.75	2754.00
1106.16	2732.00
1106.56	2740.00
1106.97	2719.00
1107.38	2720.00
1107.78	2702.00
1108.19	2718.00
1108.60	2705.00
1109.01	2683.00
1109.41	2701.00
1109.82	2682.00
1110.23	2685.00
1110.63	2666.00
1111.04	2679.00
1111.45	2657.00
1111.85	2661.00
1112.26	2665.00
1112.67	2657.00
1113.07	2657.00
1113.48	2645.00
1113.88	2635.00
1114.29	2645.00
1114.70	2547.00
1115.10	2546.00
1115.51	2550.00
1115.92	2548.00
>>>>>End Processed Spectral Data<<<<<
