SpectraSuite Data File
++++++++++++++++++++++++++++++++++++
Date: Wed Jul 15 11:00:27 EEST 2020
User: CanSEE
Dark Spectrum Present: No
Reference Spectrum Present: No
Number of Sampled Component Spectra: 1
Spectrometers: MAYP112785
Integration Time (usec): 100000 (MAYP112785)
Spectra Averaged: 1 (MAYP112785)
Boxcar Smoothing: 0 (MAYP112785)
Correct for Electrical Dark: No (MAYP112785)
Strobe/Lamp Enabled: No (MAYP112785)
Correct for Detector Non-linearity: No (MAYP112785)
Correct for Stray Light: No (MAYP112785)
Number of Pixels in Processed Spectrum: 2068
>>>>>Begin Processed Spectral Data<<<<<
198.73	3403.00
199.20	2465.00
199.67	2567.00
200.14	2540.00
200.61	2622.00
201.08	2632.00
201.56	2630.00
202.03	2667.00
202.50	2662.00
202.97	2666.00
203.44	2657.00
203.91	2661.00
204.39	2657.00
204.86	2671.00
205.33	2657.00
205.80	2659.00
206.27	2656.00
206.74	2661.00
207.21	2661.00
207.69	2653.00
208.16	2678.00
208.63	2663.00
209.10	2664.00
209.57	2683.00
210.04	2671.00
210.51	2666.00
210.98	2663.00
211.46	2654.00
211.93	2668.00
212.40	2663.00
212.87	2663.00
213.34	2673.00
213.81	2656.00
214.28	2669.00
214.75	2671.00
215.23	2671.00
215.70	2663.00
216.17	2663.00
216.64	2667.00
217.11	2660.00
217.58	2680.00
218.05	2668.00
218.52	2665.00
218.99	2677.00
219.46	2655.00
219.94	2673.00
220.41	2678.00
220.88	2682.00
221.35	2670.00
221.82	2665.00
222.29	2671.00
222.76	2672.00
223.23	2671.00
223.70	2670.00
224.17	2674.00
224.64	2674.00
225.11	2675.00
225.58	2663.00
226.06	2674.00
226.53	2681.00
227.00	2688.00
227.47	2672.00
227.94	2667.00
228.41	2676.00
228.88	2676.00
229.35	2693.00
229.82	2663.00
230.29	2683.00
230.76	2661.00
231.23	2675.00
231.70	2674.00
232.17	2678.00
232.64	2670.00
233.11	2676.00
233.58	2672.00
234.05	2679.00
234.52	2681.00
235.00	2699.00
235.47	2671.00
235.94	2669.00
236.41	2675.00
236.88	2680.00
237.35	2679.00
237.82	2677.00
238.29	2674.00
238.76	2676.00
239.23	2686.00
239.70	3028.00
240.17	2681.00
240.64	2695.00
241.11	2684.00
241.58	2693.00
242.05	2688.00
242.52	2660.00
242.99	2677.00
243.46	2680.00
243.93	2673.00
244.40	2675.00
244.87	2663.00
245.34	2674.00
245.81	2720.00
246.28	2674.00
246.75	2679.00
247.22	2684.00
247.69	2680.00
248.16	2684.00
248.63	2690.00
249.10	2677.00
249.57	2678.00
250.04	2675.00
250.51	2676.00
250.98	2680.00
251.44	2687.00
251.91	2677.00
252.38	2680.00
252.85	2676.00
253.32	2661.00
253.79	2665.00
254.26	2684.00
254.73	2685.00
255.20	2686.00
255.67	2676.00
256.14	2693.00
256.61	2673.00
257.08	2675.00
257.55	2694.00
258.02	2680.00
258.49	2687.00
258.96	2689.00
259.43	2679.00
259.90	2701.00
260.36	2699.00
260.83	2688.00
261.30	2701.00
261.77	2691.00
262.24	2696.00
262.71	2685.00
263.18	2693.00
263.65	2677.00
264.12	2696.00
264.59	2671.00
265.06	2703.00
265.53	2686.00
265.99	2685.00
266.46	2677.00
266.93	2661.00
267.40	2682.00
267.87	2690.00
268.34	2679.00
268.81	2685.00
269.28	2686.00
269.75	2693.00
270.22	2683.00
270.68	2676.00
271.15	2692.00
271.62	2681.00
272.09	2691.00
272.56	2694.00
273.03	2682.00
273.50	2687.00
273.97	2665.00
274.43	2682.00
274.90	2700.00
275.37	2680.00
275.84	2688.00
276.31	2673.00
276.78	2698.00
277.25	2685.00
277.71	2680.00
278.18	2659.00
278.65	2685.00
279.12	2681.00
279.59	2679.00
280.06	2679.00
280.53	2713.00
280.99	2668.00
281.46	2699.00
281.93	2668.00
282.40	2664.00
282.87	2678.00
283.34	2668.00
283.80	2674.00
284.27	2673.00
284.74	2691.00
285.21	2663.00
285.68	2680.00
286.15	2689.00
286.61	2671.00
287.08	2677.00
287.55	2676.00
288.02	2674.00
288.49	2662.00
288.95	2661.00
289.42	2697.00
289.89	2672.00
290.36	2676.00
290.83	2678.00
291.29	2678.00
291.76	2677.00
292.23	2671.00
292.70	2686.00
293.17	2659.00
293.63	2677.00
294.10	2663.00
294.57	2683.00
295.04	2663.00
295.51	2667.00
295.97	2675.00
296.44	2680.00
296.91	2675.00
297.38	2665.00
297.84	2706.00
298.31	2659.00
298.78	2690.00
299.25	2679.00
299.71	2686.00
300.18	2684.00
300.65	2669.00
301.12	2682.00
301.58	2688.00
302.05	2704.00
302.52	2704.00
302.99	2720.00
303.45	2742.00
303.92	2748.00
304.39	2771.00
304.86	2772.00
305.32	2801.00
305.79	2842.00
306.26	2838.00
306.73	2859.00
307.19	2899.00
307.66	2928.00
308.13	2976.00
308.60	3018.00
309.06	3013.00
309.53	3029.00
310.00	3040.00
310.46	3115.00
310.93	3197.00
311.40	3335.00
311.87	3370.00
312.33	3364.00
312.80	3385.00
313.27	3465.00
313.73	3536.00
314.20	3578.00
314.67	3638.00
315.13	3613.00
315.60	3704.00
316.07	3701.00
316.53	3649.00
317.00	3842.00
317.47	3997.00
317.94	4025.00
318.40	3971.00
318.87	3985.00
319.34	4090.00
319.80	4179.00
320.27	4250.00
320.74	4381.00
321.20	4429.00
321.67	4358.00
322.14	4319.00
322.60	4378.00
323.07	4321.00
323.54	4315.00
324.00	4493.00
324.47	4637.00
324.93	4760.00
325.40	4893.00
325.87	5021.00
326.33	5346.00
326.80	5501.00
327.27	5512.00
327.73	5478.00
328.20	5394.00
328.67	5457.00
329.13	5538.00
329.60	5751.00
330.06	6051.00
330.53	6046.00
331.00	5823.00
331.46	5755.00
331.93	5814.00
332.40	5846.00
332.86	5844.00
333.33	5875.00
333.79	5806.00
334.26	5755.00
334.73	5735.00
335.19	5893.00
335.66	5942.00
336.12	5881.00
336.59	5697.00
337.06	5495.00
337.52	5579.00
337.99	5668.00
338.45	5936.00
338.92	6001.00
339.38	6149.00
339.85	6312.00
340.32	6402.00
340.78	6559.00
341.25	6483.00
341.71	6335.00
342.18	6406.00
342.64	6554.00
343.11	6635.00
343.58	6540.00
344.04	6485.00
344.51	6233.00
344.97	6010.00
345.44	6346.00
345.90	6656.00
346.37	6675.00
346.83	6638.00
347.30	6811.00
347.77	6899.00
348.23	6731.00
348.70	6847.00
349.16	6924.00
349.63	6896.00
350.09	6906.00
350.56	7247.00
351.02	7527.00
351.49	7460.00
351.95	7179.00
352.42	7230.00
352.88	7208.00
353.35	7188.00
353.81	7512.00
354.28	7857.00
354.74	7936.00
355.21	7821.00
355.67	7819.00
356.14	7653.00
356.60	7344.00
357.07	7056.00
357.53	6815.00
358.00	6721.00
358.46	6597.00
358.93	6533.00
359.39	6858.00
359.86	7601.00
360.32	7910.00
360.79	7805.00
361.25	7461.00
361.72	7377.00
362.18	7477.00
362.65	7520.00
363.11	7977.00
363.58	8146.00
364.04	7935.00
364.51	8248.00
364.97	8276.00
365.43	8231.00
365.90	8674.00
366.36	9195.00
366.83	9132.00
367.29	9094.00
367.76	9003.00
368.22	8976.00
368.69	8816.00
369.15	8847.00
369.61	9071.00
370.08	9406.00
370.54	9323.00
371.01	9026.00
371.47	8877.00
371.94	9156.00
372.40	8992.00
372.86	8403.00
373.33	8491.00
373.79	8351.00
374.26	7956.00
374.72	8230.00
375.19	8387.00
375.65	8497.00
376.11	9299.00
376.58	9393.00
377.04	9576.00
377.51	9787.00
377.97	10300.00
378.43	10633.00
378.90	10754.00
379.36	10257.00
379.82	9695.00
380.29	9489.00
380.75	9775.00
381.22	9986.00
381.68	9753.00
382.14	9030.00
382.61	8361.00
383.07	7997.00
383.53	7793.00
384.00	7947.00
384.46	8252.00
384.93	9067.00
385.39	9711.00
385.85	9693.00
386.32	9519.00
386.78	9511.00
387.24	9920.00
387.71	9812.00
388.17	9912.00
388.63	10020.00
389.10	10314.00
389.56	10689.00
390.02	11411.00
390.49	11734.00
390.95	11729.00
391.41	11694.00
391.88	11796.00
392.34	11328.00
392.80	10311.00
393.27	9451.00
393.73	8553.00
394.19	8615.00
394.66	9878.00
395.12	11191.00
395.58	11850.00
396.05	12052.00
396.51	11470.00
396.97	10454.00
397.43	9936.00
397.90	11158.00
398.36	13319.00
398.82	14834.00
399.29	15677.00
399.75	16116.00
400.21	16562.00
400.67	16668.00
401.14	16997.00
401.60	17139.00
402.06	17427.00
402.53	17581.00
402.99	17558.00
403.45	17536.00
403.91	17112.00
404.38	17478.00
404.84	17547.00
405.30	16989.00
405.76	17419.00
406.23	17282.00
406.69	17253.00
407.15	17178.00
407.61	17612.00
408.08	17848.00
408.54	17892.00
409.00	18363.00
409.46	18743.00
409.93	18506.00
410.39	18180.00
410.85	17813.00
411.31	18506.00
411.77	19342.00
412.24	19840.00
412.70	19823.00
413.16	19728.00
413.62	19625.00
414.09	19569.00
414.55	20127.00
415.01	20025.00
415.47	19956.00
415.93	20129.00
416.40	20012.00
416.86	20435.00
417.32	20325.00
417.78	19996.00
418.24	19842.00
418.71	19777.00
419.17	19993.00
419.63	20108.00
420.09	20380.00
420.55	20285.00
421.01	20594.00
421.48	20985.00
421.94	20875.00
422.40	20820.00
422.86	20493.00
423.32	20026.00
423.78	20386.00
424.25	20820.00
424.71	20801.00
425.17	21027.00
425.63	20705.00
426.09	20603.00
426.55	20687.00
427.01	20735.00
427.48	20638.00
427.94	20077.00
428.40	20108.00
428.86	20005.00
429.32	19461.00
429.78	18633.00
430.24	18324.00
430.71	18052.00
431.17	18102.00
431.63	18847.00
432.09	20612.00
432.55	22446.00
433.01	22130.00
433.47	21600.00
433.93	22554.00
434.39	22119.00
434.86	21757.00
435.32	22759.00
435.78	23786.00
436.24	23776.00
436.70	24203.00
437.16	24377.00
437.62	23777.00
438.08	23388.00
438.54	22992.00
439.00	23068.00
439.46	23033.00
439.93	23943.00
440.39	24554.00
440.85	24896.00
441.31	25020.00
441.77	25805.00
442.23	26233.00
442.69	26409.00
443.15	26690.00
443.61	26705.00
444.07	26915.00
444.53	26655.00
444.99	26749.00
445.45	27044.00
445.91	26899.00
446.37	26622.00
446.83	26817.00
447.29	27647.00
447.75	28274.00
448.21	28642.00
448.67	28752.00
449.14	28809.00
449.60	29381.00
450.06	29531.00
450.52	29876.00
450.98	30237.00
451.44	30492.00
451.90	30000.00
452.36	29505.00
452.82	29217.00
453.28	29143.00
453.74	28582.00
454.20	28821.00
454.66	29545.00
455.12	30095.00
455.58	30112.00
456.04	30008.00
456.50	30640.00
456.96	31017.00
457.42	31007.00
457.88	30843.00
458.33	30838.00
458.79	30720.00
459.25	30451.00
459.71	30769.00
460.17	30765.00
460.63	31061.00
461.09	31468.00
461.55	31908.00
462.01	31989.00
462.47	31973.00
462.93	32074.00
463.39	32073.00
463.85	31890.00
464.31	31785.00
464.77	31584.00
465.23	31561.00
465.69	31442.00
466.15	31569.00
466.61	31782.00
467.07	31544.00
467.52	31355.00
467.98	31571.00
468.44	32213.00
468.90	32038.00
469.36	32023.00
469.82	31878.00
470.28	32113.00
470.74	31952.00
471.20	31790.00
471.66	32372.00
472.12	32937.00
472.57	33391.00
473.03	33444.00
473.49	33148.00
473.95	33059.00
474.41	33315.00
474.87	33513.00
475.33	33668.00
475.79	33493.00
476.25	33350.00
476.70	33492.00
477.16	33636.00
477.62	33812.00
478.08	34350.00
478.54	34697.00
479.00	34760.00
479.46	34452.00
479.91	34502.00
480.37	34830.00
480.83	34905.00
481.29	35252.00
481.75	35087.00
482.21	35275.00
482.67	35340.00
483.12	34915.00
483.58	34729.00
484.04	34723.00
484.50	34367.00
484.96	33496.00
485.42	32689.00
485.87	32056.00
486.33	31233.00
486.79	30724.00
487.25	31262.00
487.71	32728.00
488.16	33176.00
488.62	33938.00
489.08	34386.00
489.54	34685.00
490.00	34639.00
490.45	35332.00
490.91	35401.00
491.37	34870.00
491.83	34443.00
492.29	34430.00
492.74	34388.00
493.20	34677.00
493.66	35351.00
494.12	35718.00
494.57	35687.00
495.03	35855.00
495.49	36255.00
495.95	36397.00
496.40	35996.00
496.86	35945.00
497.32	36194.00
497.78	35784.00
498.23	35644.00
498.69	35538.00
499.15	35235.00
499.61	35154.00
500.06	35283.00
500.52	35115.00
500.98	34561.00
501.44	34307.00
501.89	34519.00
502.35	34631.00
502.81	34808.00
503.27	35084.00
503.72	35139.00
504.18	35330.00
504.64	35231.00
505.09	35559.00
505.55	36297.00
506.01	36644.00
506.47	36746.00
506.92	36637.00
507.38	36248.00
507.84	35966.00
508.29	36044.00
508.75	36274.00
509.21	36105.00
509.66	36862.00
510.12	36817.00
510.58	36623.00
511.03	37008.00
511.49	37243.00
511.95	37176.00
512.40	37342.00
512.86	37134.00
513.32	36680.00
513.77	36309.00
514.23	36520.00
514.69	36249.00
515.14	36488.00
515.60	36427.00
516.06	35804.00
516.51	34832.00
516.97	34058.00
517.43	33760.00
517.88	32815.00
518.34	33881.00
518.79	35037.00
519.25	34966.00
519.71	35924.00
520.16	36578.00
520.62	36988.00
521.08	37310.00
521.53	37316.00
521.99	37530.00
522.44	37504.00
522.90	37363.00
523.36	37707.00
523.81	37878.00
524.27	38497.00
524.72	38822.00
525.18	39125.00
525.64	38500.00
526.09	37655.00
526.55	36992.00
527.00	36744.00
527.46	36480.00
527.92	36781.00
528.37	38125.00
528.83	39276.00
529.28	39321.00
529.74	39806.00
530.19	39731.00
530.65	39819.00
531.10	39800.00
531.56	40162.00
532.02	39780.00
532.47	39062.00
532.93	38735.00
533.38	38601.00
533.84	38688.00
534.29	39300.00
534.75	39669.00
535.20	39903.00
535.66	40292.00
536.11	40254.00
536.57	39845.00
537.02	39720.00
537.48	39621.00
537.93	39312.00
538.39	39765.00
538.84	39802.00
539.30	39626.00
539.75	39021.00
540.21	38479.00
540.66	38427.00
541.12	38557.00
541.57	38933.00
542.03	39196.00
542.48	39647.00
542.94	39637.00
543.39	39526.00
543.85	40085.00
544.30	40060.00
544.76	40334.00
545.21	40363.00
545.67	40199.00
546.12	40313.00
546.58	40434.00
547.03	40367.00
547.49	40056.00
547.94	40024.00
548.40	40198.00
548.85	40240.00
549.30	40725.00
549.76	40720.00
550.21	40641.00
550.67	40472.00
551.12	40677.00
551.58	40959.00
552.03	41052.00
552.48	40684.00
552.94	40840.00
553.39	40619.00
553.85	40899.00
554.30	41338.00
554.76	41261.00
555.21	41320.00
555.66	41208.00
556.12	41134.00
556.57	40519.00
557.03	40512.00
557.48	40547.00
557.93	40275.00
558.39	40149.00
558.84	39776.00
559.30	39881.00
559.75	39670.00
560.20	39765.00
560.66	40295.00
561.11	40492.00
561.56	40903.00
562.02	40656.00
562.47	40621.00
562.92	41005.00
563.38	40829.00
563.83	41040.00
564.29	40831.00
564.74	40890.00
565.19	40524.00
565.65	40313.00
566.10	40128.00
566.55	40373.00
567.01	40394.00
567.46	40788.00
567.91	40847.00
568.37	40584.00
568.82	40369.00
569.27	40282.00
569.73	40313.00
570.18	40151.00
570.63	39892.00
571.08	39820.00
571.54	39913.00
571.99	40337.00
572.44	40746.00
572.90	40921.00
573.35	41538.00
573.80	41376.00
574.26	41492.00
574.71	41012.00
575.16	40756.00
575.61	40722.00
576.07	40702.00
576.52	40655.00
576.97	41045.00
577.42	41064.00
577.88	40939.00
578.33	40589.00
578.78	40798.00
579.24	40519.00
579.69	40884.00
580.14	41391.00
580.59	41354.00
581.05	41829.00
581.50	41707.00
581.95	41993.00
582.40	42391.00
582.85	42345.00
583.31	42586.00
583.76	42338.00
584.21	42497.00
584.66	42253.00
585.12	42220.00
585.57	41876.00
586.02	41548.00
586.47	41331.00
586.92	41277.00
587.38	41799.00
587.83	41640.00
588.28	40915.00
588.73	39525.00
589.18	38071.00
589.64	37450.00
590.09	37472.00
590.54	38471.00
590.99	39526.00
591.44	40094.00
591.90	40274.00
592.35	40177.00
592.80	40201.00
593.25	40347.00
593.70	40619.00
594.15	40609.00
594.61	39972.00
595.06	40037.00
595.51	40140.00
595.96	40421.00
596.41	40966.00
596.86	41097.00
597.31	41156.00
597.77	41156.00
598.22	40647.00
598.67	40624.00
599.12	40864.00
599.57	40758.00
600.02	41063.00
600.47	40970.00
600.92	40993.00
601.38	40853.00
601.83	40703.00
602.28	40655.00
602.73	40781.00
603.18	41022.00
603.63	41636.00
604.08	42107.00
604.53	42202.00
604.98	42227.00
605.43	42082.00
605.89	42040.00
606.34	41870.00
606.79	41962.00
607.24	42063.00
607.69	42013.00
608.14	42085.00
608.59	41851.00
609.04	41676.00
609.49	41433.00
609.94	41832.00
610.39	41412.00
610.84	41489.00
611.29	41842.00
611.74	41896.00
612.19	41757.00
612.64	41697.00
613.10	41580.00
613.55	41165.00
614.00	40989.00
614.45	41097.00
614.90	41331.00
615.35	41618.00
615.80	41377.00
616.25	40721.00
616.70	40201.00
617.15	40328.00
617.60	40679.00
618.05	41095.00
618.50	41488.00
618.95	41730.00
619.40	41603.00
619.85	41813.00
620.30	41785.00
620.75	41979.00
621.20	42113.00
621.65	41628.00
622.10	41688.00
622.55	41397.00
623.00	41131.00
623.45	41205.00
623.89	41009.00
624.34	40745.00
624.79	40651.00
625.24	40622.00
625.69	40204.00
626.14	40433.00
626.59	40644.00
627.04	41126.00
627.49	40926.00
627.94	40316.00
628.39	39925.00
628.84	40014.00
629.29	40281.00
629.74	40502.00
630.19	40140.00
630.64	40368.00
631.09	40545.00
631.53	40717.00
631.98	40561.00
632.43	40741.00
632.88	40924.00
633.33	41114.00
633.78	41185.00
634.23	41145.00
634.68	41034.00
635.13	41401.00
635.58	41724.00
636.02	41652.00
636.47	41485.00
636.92	41955.00
637.37	41976.00
637.82	42252.00
638.27	42437.00
638.72	42492.00
639.16	42704.00
639.61	42243.00
640.06	42016.00
640.51	41638.00
640.96	41574.00
641.41	41445.00
641.86	41582.00
642.30	41700.00
642.75	41954.00
643.20	42040.00
643.65	42127.00
644.10	41670.00
644.55	42012.00
644.99	41968.00
645.44	41532.00
645.89	41651.00
646.34	41337.00
646.79	40967.00
647.23	40828.00
647.68	40592.00
648.13	40491.00
648.58	40294.00
649.03	40382.00
649.47	39881.00
649.92	39577.00
650.37	40102.00
650.82	40964.00
651.27	41341.00
651.71	40945.00
652.16	40549.00
652.61	40590.00
653.06	40920.00
653.50	41185.00
653.95	41285.00
654.40	40939.00
654.85	40367.00
655.29	39929.00
655.74	38974.00
656.19	36764.00
656.64	34937.00
657.08	35715.00
657.53	36957.00
657.98	39073.00
658.43	40389.00
658.87	40560.00
659.32	40621.00
659.77	40659.00
660.21	41044.00
660.66	41246.00
661.11	41307.00
661.56	41679.00
662.00	41791.00
662.45	41880.00
662.90	41623.00
663.34	41783.00
663.79	41222.00
664.24	41452.00
664.68	41295.00
665.13	41473.00
665.58	41615.00
666.02	41667.00
666.47	41395.00
666.92	41565.00
667.36	41464.00
667.81	41540.00
668.26	41425.00
668.70	41340.00
669.15	41596.00
669.60	41669.00
670.04	41343.00
670.49	41225.00
670.94	41190.00
671.38	41315.00
671.83	40789.00
672.28	40867.00
672.72	40917.00
673.17	41212.00
673.61	41212.00
674.06	41152.00
674.51	40847.00
674.95	40828.00
675.40	40859.00
675.85	40876.00
676.29	41289.00
676.74	41259.00
677.18	40855.00
677.63	40851.00
678.07	40980.00
678.52	40717.00
678.97	40802.00
679.41	40773.00
679.86	41013.00
680.30	40891.00
680.75	40787.00
681.20	40588.00
681.64	40588.00
682.09	40479.00
682.53	40529.00
682.98	40444.00
683.42	40448.00
683.87	40222.00
684.31	39956.00
684.76	39690.00
685.20	39817.00
685.65	39788.00
686.10	39293.00
686.54	38310.00
686.99	35041.00
687.43	31204.00
687.88	30156.00
688.32	31790.00
688.77	33735.00
689.21	34202.00
689.66	34007.00
690.10	33905.00
690.55	34407.00
690.99	35342.00
691.44	35775.00
691.88	36169.00
692.33	36747.00
692.77	36846.00
693.22	36468.00
693.66	36231.00
694.11	35544.00
694.55	35353.00
695.00	35658.00
695.44	35757.00
695.88	36253.00
696.33	36398.00
696.77	37288.00
697.22	37894.00
697.66	38207.00
698.11	37800.00
698.55	37273.00
699.00	36828.00
699.44	36348.00
699.88	36426.00
700.33	36358.00
700.77	36112.00
701.22	36078.00
701.66	35986.00
702.11	35906.00
702.55	35611.00
702.99	35606.00
703.44	36450.00
703.88	36666.00
704.33	36976.00
704.77	37223.00
705.21	37307.00
705.66	37163.00
706.10	36958.00
706.54	37182.00
706.99	37113.00
707.43	37017.00
707.88	37360.00
708.32	37324.00
708.76	37098.00
709.21	37144.00
709.65	37265.00
710.09	37363.00
710.54	37314.00
710.98	37338.00
711.42	37080.00
711.87	36890.00
712.31	36894.00
712.76	36845.00
713.20	36737.00
713.64	36762.00
714.08	36962.00
714.53	36989.00
714.97	36250.00
715.41	35662.00
715.86	35608.00
716.30	35121.00
716.74	33851.00
717.19	31482.00
717.63	29519.00
718.07	28362.00
718.52	27857.00
718.96	27020.00
719.40	26597.00
719.84	26283.00
720.29	26324.00
720.73	26602.00
721.17	27988.00
721.62	30410.00
722.06	32107.00
722.50	32730.00
722.94	32135.00
723.39	31255.00
723.83	28934.00
724.27	28203.00
724.71	27987.00
725.16	28230.00
725.60	28195.00
726.04	28501.00
726.48	28689.00
726.93	28782.00
727.37	29512.00
727.81	28642.00
728.25	28243.00
728.69	29340.00
729.14	28927.00
729.58	28209.00
730.02	28770.00
730.46	29339.00
730.90	29422.00
731.35	29254.00
731.79	29704.00
732.23	30308.00
732.67	31353.00
733.11	31949.00
733.56	32208.00
734.00	32517.00
734.44	33384.00
734.88	33185.00
735.32	32674.00
735.76	32860.00
736.21	32693.00
736.65	32694.00
737.09	32794.00
737.53	32981.00
737.97	33135.00
738.41	33106.00
738.85	32615.00
739.30	32262.00
739.74	32664.00
740.18	32948.00
740.62	33602.00
741.06	33227.00
741.50	33014.00
741.94	33016.00
742.38	33031.00
742.83	33126.00
743.27	33359.00
743.71	33560.00
744.15	33653.00
744.59	33424.00
745.03	33476.00
745.47	33534.00
745.91	34029.00
746.35	33984.00
746.79	33744.00
747.23	33958.00
747.68	33983.00
748.12	33892.00
748.56	33939.00
749.00	33857.00
749.44	33876.00
749.88	33656.00
750.32	33827.00
750.76	33897.00
751.20	33800.00
751.64	33685.00
752.08	33848.00
752.52	33818.00
752.96	33636.00
753.40	33567.00
753.84	33623.00
754.28	33815.00
754.72	33829.00
755.16	33849.00
755.60	33843.00
756.04	33850.00
756.48	33830.00
756.92	33901.00
757.36	33687.00
757.80	33330.00
758.24	33161.00
758.68	32926.00
759.12	31865.00
759.56	28808.00
760.00	20885.00
760.44	13399.00
760.88	9309.00
761.32	9115.00
761.76	12533.00
762.20	17699.00
762.64	18689.00
763.08	16594.00
763.52	15231.00
763.96	15564.00
764.40	16730.00
764.84	18591.00
765.28	20294.00
765.72	22095.00
766.15	23707.00
766.59	25208.00
767.03	27092.00
767.47	28560.00
767.91	29735.00
768.35	30510.00
768.79	30925.00
769.23	31213.00
769.67	31103.00
770.11	31362.00
770.55	32004.00
770.98	32328.00
771.42	32216.00
771.86	32020.00
772.30	32333.00
772.74	32379.00
773.18	32367.00
773.62	32250.00
774.06	32197.00
774.49	31910.00
774.93	31416.00
775.37	31268.00
775.81	31641.00
776.25	31878.00
776.69	32193.00
777.13	32245.00
777.56	32098.00
778.00	31946.00
778.44	31562.00
778.88	31550.00
779.32	31587.00
779.76	31462.00
780.19	31104.00
780.63	30841.00
781.07	31109.00
781.51	30942.00
781.95	31459.00
782.38	31440.00
782.82	31511.00
783.26	31456.00
783.70	31032.00
784.14	30802.00
784.57	30987.00
785.01	30539.00
785.45	30561.00
785.89	30299.00
786.32	30224.00
786.76	29982.00
787.20	30029.00
787.64	29812.00
788.07	29833.00
788.51	29750.00
788.95	29700.00
789.39	29306.00
789.82	28813.00
790.26	28712.00
790.70	28772.00
791.14	28561.00
791.57	28289.00
792.01	27991.00
792.45	28020.00
792.88	28042.00
793.32	28028.00
793.76	28028.00
794.20	28402.00
794.63	28229.00
795.07	28353.00
795.51	28566.00
795.94	28237.00
796.38	27497.00
796.82	27153.00
797.25	27381.00
797.69	27652.00
798.13	27707.00
798.56	27739.00
799.00	27678.00
799.44	27854.00
799.87	27649.00
800.31	27148.00
800.75	27175.00
801.18	27172.00
801.62	27135.00
802.06	27332.00
802.49	26899.00
802.93	26489.00
803.37	26474.00
803.80	26553.00
804.24	26614.00
804.67	26527.00
805.11	26077.00
805.55	26592.00
805.98	27163.00
806.42	27192.00
806.85	27164.00
807.29	26998.00
807.73	26867.00
808.16	26590.00
808.60	26185.00
809.03	26034.00
809.47	25708.00
809.91	25314.00
810.34	25336.00
810.78	25330.00
811.21	25105.00
811.65	24926.00
812.08	24820.00
812.52	24680.00
812.96	24193.00
813.39	23380.00
813.83	22213.00
814.26	22161.00
814.70	21511.00
815.13	20770.00
815.57	20138.00
816.00	20319.00
816.44	19506.00
816.87	18974.00
817.31	19667.00
817.74	20349.00
818.18	19507.00
818.61	19861.00
819.05	20515.00
819.48	20652.00
819.92	20262.00
820.35	20572.00
820.79	22412.00
821.22	22910.00
821.66	22404.00
822.09	21815.00
822.53	20704.00
822.96	18025.00
823.40	16570.00
823.83	18734.00
824.27	21029.00
824.70	21862.00
825.13	22743.00
825.57	23009.00
826.00	22147.00
826.44	22084.00
826.87	22527.00
827.31	22314.00
827.74	20596.00
828.17	20194.00
828.61	20674.00
829.04	20754.00
829.48	20544.00
829.91	20875.00
830.35	21355.00
830.78	21124.00
831.21	21721.00
831.65	21944.00
832.08	21358.00
832.52	21394.00
832.95	21933.00
833.38	21675.00
833.82	21335.00
834.25	21301.00
834.68	21949.00
835.12	22230.00
835.55	22220.00
835.98	22141.00
836.42	22163.00
836.85	22565.00
837.29	22783.00
837.72	22900.00
838.15	22923.00
838.59	23138.00
839.02	22993.00
839.45	23484.00
839.89	23398.00
840.32	23347.00
840.75	23056.00
841.18	22906.00
841.62	22969.00
842.05	22833.00
842.48	23016.00
842.92	23137.00
843.35	23043.00
843.78	22802.00
844.22	22604.00
844.65	23179.00
845.08	23328.00
845.51	23764.00
845.95	23789.00
846.38	23630.00
846.81	23439.00
847.24	23034.00
847.68	22845.00
848.11	22968.00
848.54	22765.00
848.97	22605.00
849.41	22431.00
849.84	21222.00
850.27	20976.00
850.70	21800.00
851.14	22662.00
851.57	22660.00
852.00	22483.00
852.43	22923.00
852.87	22978.00
853.30	22700.00
853.73	21833.00
854.16	19713.00
854.59	18490.00
855.03	20134.00
855.46	21406.00
855.89	21748.00
856.32	22095.00
856.75	22297.00
857.18	22553.00
857.62	22438.00
858.05	22667.00
858.48	22590.00
858.91	22765.00
859.34	22679.00
859.77	22846.00
860.21	22837.00
860.64	22909.00
861.07	22587.00
861.50	22439.00
861.93	22336.00
862.36	22126.00
862.79	22279.00
863.23	22069.00
863.66	22348.00
864.09	22299.00
864.52	22370.00
864.95	22092.00
865.38	22045.00
865.81	21193.00
866.24	19408.00
866.67	19572.00
867.10	21045.00
867.54	21913.00
867.97	22172.00
868.40	22206.00
868.83	21776.00
869.26	21568.00
869.69	21668.00
870.12	21679.00
870.55	21546.00
870.98	21504.00
871.41	21419.00
871.84	21618.00
872.27	21782.00
872.70	21571.00
873.13	21561.00
873.56	21350.00
873.99	21494.00
874.42	21351.00
874.85	21551.00
875.28	21621.00
875.71	21564.00
876.14	21500.00
876.57	21268.00
877.00	21135.00
877.43	20936.00
877.86	20852.00
878.29	20935.00
878.72	21027.00
879.15	20734.00
879.58	20757.00
880.01	20958.00
880.44	20653.00
880.87	20209.00
881.30	20717.00
881.73	21184.00
882.16	21162.00
882.59	21036.00
883.02	21299.00
883.45	21349.00
883.88	21297.00
884.31	21105.00
884.74	21078.00
885.17	20807.00
885.60	20684.00
886.03	20185.00
886.46	20079.00
886.88	19981.00
887.31	20482.00
887.74	20445.00
888.17	20560.00
888.60	20739.00
889.03	20827.00
889.46	20728.00
889.89	20750.00
890.32	20787.00
890.75	20802.00
891.17	20772.00
891.60	20480.00
892.03	20229.00
892.46	19821.00
892.89	19294.00
893.32	19041.00
893.75	19061.00
894.17	18664.00
894.60	18025.00
895.03	17528.00
895.46	17095.00
895.89	17176.00
896.32	16042.00
896.74	15929.00
897.17	15645.00
897.60	15945.00
898.03	16363.00
898.46	15498.00
898.89	13266.00
899.31	14500.00
899.74	15949.00
900.17	15015.00
900.60	14469.00
901.02	14622.00
901.45	14749.00
901.88	15022.00
902.31	14755.00
902.74	15301.00
903.16	16392.00
903.59	17549.00
904.02	17302.00
904.45	17349.00
904.87	17351.00
905.30	17046.00
905.73	17015.00
906.16	15852.00
906.58	15507.00
907.01	14606.00
907.44	14792.00
907.87	14320.00
908.29	14512.00
908.72	14206.00
909.15	14273.00
909.57	14185.00
910.00	14232.00
910.43	13975.00
910.86	14621.00
911.28	15133.00
911.71	14209.00
912.14	14931.00
912.56	14500.00
912.99	12977.00
913.42	12615.00
913.84	13926.00
914.27	14770.00
914.70	14519.00
915.12	12817.00
915.55	12924.00
915.98	14267.00
916.40	15004.00
916.83	14274.00
917.26	12830.00
917.68	13389.00
918.11	14115.00
918.53	14709.00
918.96	15008.00
919.39	14760.00
919.81	15576.00
920.24	15672.00
920.66	15215.00
921.09	14777.00
921.52	14481.00
921.94	15089.00
922.37	14981.00
922.79	14650.00
923.22	14302.00
923.65	14020.00
924.07	13979.00
924.50	14090.00
924.92	14236.00
925.35	14164.00
925.77	13721.00
926.20	14053.00
926.63	14011.00
927.05	13261.00
927.48	11973.00
927.90	11165.00
928.33	10743.00
928.75	10647.00
929.18	10019.00
929.60	9339.00
930.03	9085.00
930.45	8555.00
930.88	8213.00
931.30	7217.00
931.73	6644.00
932.15	6245.00
932.58	6372.00
933.00	5861.00
933.43	5099.00
933.85	4984.00
934.28	5304.00
934.70	6294.00
935.13	5598.00
935.55	5327.00
935.98	5683.00
936.40	5200.00
936.83	4929.00
937.25	5141.00
937.68	4988.00
938.10	5514.00
938.52	6567.00
938.95	7255.00
939.37	7156.00
939.80	6453.00
940.22	6165.00
940.65	5935.00
941.07	6003.00
941.49	6001.00
941.92	5996.00
942.34	5287.00
942.77	5451.00
943.19	5808.00
943.61	4891.00
944.04	4955.00
944.46	5691.00
944.89	5632.00
945.31	5145.00
945.73	5103.00
946.16	5535.00
946.58	5628.00
947.00	5824.00
947.43	5704.00
947.85	5654.00
948.27	6301.00
948.70	6345.00
949.12	5447.00
949.54	5117.00
949.97	6062.00
950.39	7069.00
950.81	6952.00
951.24	5978.00
951.66	5465.00
952.08	5696.00
952.51	6291.00
952.93	6840.00
953.35	6852.00
953.78	6529.00
954.20	6440.00
954.62	6661.00
955.04	6438.00
955.47	6827.00
955.89	6633.00
956.31	6679.00
956.74	7602.00
957.16	7959.00
957.58	7407.00
958.00	7388.00
958.43	6565.00
958.85	6643.00
959.27	7245.00
959.69	7736.00
960.12	7767.00
960.54	8347.00
960.96	8404.00
961.38	7974.00
961.80	7752.00
962.23	8295.00
962.65	8989.00
963.07	8456.00
963.49	8529.00
963.91	8466.00
964.34	8804.00
964.76	9100.00
965.18	9121.00
965.60	8482.00
966.02	8836.00
966.45	9489.00
966.87	10499.00
967.29	10388.00
967.71	10499.00
968.13	10765.00
968.55	10870.00
968.98	10988.00
969.40	10707.00
969.82	11039.00
970.24	11185.00
970.66	11093.00
971.08	10950.00
971.50	10715.00
971.92	10636.00
972.35	10535.00
972.77	10084.00
973.19	9837.00
973.61	10116.00
974.03	10147.00
974.45	10226.00
974.87	9889.00
975.29	9835.00
975.71	9835.00
976.13	10476.00
976.56	10646.00
976.98	10374.00
977.40	10287.00
977.82	10506.00
978.24	10425.00
978.66	10402.00
979.08	10475.00
979.50	10509.00
979.92	10990.00
980.34	11087.00
980.76	11084.00
981.18	11057.00
981.60	10793.00
982.02	10788.00
982.44	11091.00
982.86	11182.00
983.28	11207.00
983.70	10968.00
984.12	10913.00
984.54	11061.00
984.96	11021.00
985.38	11025.00
985.80	11010.00
986.22	10963.00
986.64	10874.00
987.06	11014.00
987.48	11097.00
987.90	11049.00
988.32	11066.00
988.74	11014.00
989.16	11018.00
989.58	11003.00
990.00	10947.00
990.42	11020.00
990.84	10970.00
991.26	10897.00
991.67	10821.00
992.09	10767.00
992.51	10900.00
992.93	10897.00
993.35	10789.00
993.77	10824.00
994.19	10658.00
994.61	10616.00
995.03	10642.00
995.45	10635.00
995.87	10689.00
996.28	10684.00
996.70	10736.00
997.12	10723.00
997.54	10882.00
997.96	10925.00
998.38	10905.00
998.80	10877.00
999.21	10963.00
999.63	10985.00
1000.05	10936.00
1000.47	10803.00
1000.89	10793.00
1001.31	10781.00
1001.72	10762.00
1002.14	10777.00
1002.56	10800.00
1002.98	10691.00
1003.40	10622.00
1003.82	10459.00
1004.23	10353.00
1004.65	10494.00
1005.07	10408.00
1005.49	10377.00
1005.90	10418.00
1006.32	10432.00
1006.74	10314.00
1007.16	10339.00
1007.58	10303.00
1007.99	10243.00
1008.41	10217.00
1008.83	10307.00
1009.25	10281.00
1009.66	10227.00
1010.08	10270.00
1010.50	10138.00
1010.92	10046.00
1011.33	9882.00
1011.75	10013.00
1012.17	9968.00
1012.58	9870.00
1013.00	9824.00
1013.42	9592.00
1013.84	9580.00
1014.25	9551.00
1014.67	9572.00
1015.09	9588.00
1015.50	9497.00
1015.92	9411.00
1016.34	9317.00
1016.75	9279.00
1017.17	9237.00
1017.59	9066.00
1018.00	9006.00
1018.42	8910.00
1018.84	8963.00
1019.25	8923.00
1019.67	8749.00
1020.09	8743.00
1020.50	8805.00
1020.92	8660.00
1021.33	8706.00
1021.75	8691.00
1022.17	8549.00
1022.58	8542.00
1023.00	8528.00
1023.42	8410.00
1023.83	8352.00
1024.25	8362.00
1024.66	8305.00
1025.08	8201.00
1025.50	8165.00
1025.91	8115.00
1026.33	8076.00
1026.74	8051.00
1027.16	7960.00
1027.57	7839.00
1027.99	7887.00
1028.40	7793.00
1028.82	7751.00
1029.24	7669.00
1029.65	7594.00
1030.07	7524.00
1030.48	7496.00
1030.90	7462.00
1031.31	7301.00
1031.73	7314.00
1032.14	7311.00
1032.56	7222.00
1032.97	7149.00
1033.39	7194.00
1033.80	7136.00
1034.22	7099.00
1034.63	7044.00
1035.05	7002.00
1035.46	6937.00
1035.88	6900.00
1036.29	6868.00
1036.71	6749.00
1037.12	6720.00
1037.54	6676.00
1037.95	6634.00
1038.36	6663.00
1038.78	6610.00
1039.19	6509.00
1039.61	6526.00
1040.02	6453.00
1040.44	6425.00
1040.85	6392.00
1041.27	6275.00
1041.68	6254.00
1042.09	6240.00
1042.51	6117.00
1042.92	6145.00
1043.34	6001.00
1043.75	5993.00
1044.16	5980.00
1044.58	5898.00
1044.99	5876.00
1045.40	5867.00
1045.82	5880.00
1046.23	5832.00
1046.65	5734.00
1047.06	5695.00
1047.47	5645.00
1047.89	5710.00
1048.30	5654.00
1048.71	5567.00
1049.13	5547.00
1049.54	5475.00
1049.95	5403.00
1050.37	5415.00
1050.78	5395.00
1051.19	5365.00
1051.61	5315.00
1052.02	5278.00
1052.43	5287.00
1052.85	5251.00
1053.26	5236.00
1053.67	5193.00
1054.08	5112.00
1054.50	5013.00
1054.91	5002.00
1055.32	4992.00
1055.74	4929.00
1056.15	4860.00
1056.56	4790.00
1056.97	4754.00
1057.39	4769.00
1057.80	4806.00
1058.21	4700.00
1058.62	4695.00
1059.03	4727.00
1059.45	4646.00
1059.86	4609.00
1060.27	4591.00
1060.68	4575.00
1061.10	4543.00
1061.51	4530.00
1061.92	4496.00
1062.33	4473.00
1062.74	4468.00
1063.16	4412.00
1063.57	4376.00
1063.98	4393.00
1064.39	4372.00
1064.80	4380.00
1065.21	4310.00
1065.63	4283.00
1066.04	4294.00
1066.45	4131.00
1066.86	4138.00
1067.27	4102.00
1067.68	4113.00
1068.10	4154.00
1068.51	4082.00
1068.92	4075.00
1069.33	4020.00
1069.74	4036.00
1070.15	4016.00
1070.56	3964.00
1070.97	3977.00
1071.38	3933.00
1071.80	3954.00
1072.21	3899.00
1072.62	3856.00
1073.03	3856.00
1073.44	3860.00
1073.85	3825.00
1074.26	3812.00
1074.67	3799.00
1075.08	3787.00
1075.49	3748.00
1075.90	3731.00
1076.31	3721.00
1076.72	3734.00
1077.13	3674.00
1077.54	3665.00
1077.95	3600.00
1078.36	3634.00
1078.77	3629.00
1079.19	3603.00
1079.60	3585.00
1080.01	3570.00
1080.42	3577.00
1080.83	3527.00
1081.24	3531.00
1081.65	3495.00
1082.05	3471.00
1082.46	3459.00
1082.87	3439.00
1083.28	3418.00
1083.69	3441.00
1084.10	3393.00
1084.51	3403.00
1084.92	3360.00
1085.33	3376.00
1085.74	3349.00
1086.15	3520.00
1086.56	3295.00
1086.97	3316.00
1087.38	3341.00
1087.79	3299.00
1088.20	3270.00
1088.61	3265.00
1089.02	3263.00
1089.42	3241.00
1089.83	3222.00
1090.24	3197.00
1090.65	3184.00
1091.06	3172.00
1091.47	3173.00
1091.88	3148.00
1092.29	3103.00
1092.70	3141.00
1093.10	3108.00
1093.51	3089.00
1093.92	3057.00
1094.33	3068.00
1094.74	3045.00
1095.15	3012.00
1095.55	3014.00
1095.96	3007.00
1096.37	2991.00
1096.78	2967.00
1097.19	2955.00
1097.60	2963.00
1098.00	2919.00
1098.41	2906.00
1098.82	2917.00
1099.23	2913.00
1099.64	2879.00
1100.04	2861.00
1100.45	2860.00
1100.86	2867.00
1101.27	2859.00
1101.67	2830.00
1102.08	2832.00
1102.49	2835.00
1102.90	2801.00
1103.31	2799.00
1103.71	2773.00
1104.12	2772.00
1104.53	2769.00
1104.93	2755.00
1105.34	2747.00
1105.75	2750.00
1106.16	2726.00
1106.56	2752.00
1106.97	2721.00
1107.38	2717.00
1107.78	2720.00
1108.19	2711.00
1108.60	2701.00
1109.01	2690.00
1109.41	2683.00
1109.82	2690.00
1110.23	2672.00
1110.63	2666.00
1111.04	2662.00
1111.45	2665.00
1111.85	2670.00
1112.26	2648.00
1112.67	2665.00
1113.07	2658.00
1113.48	2635.00
1113.88	2654.00
1114.29	2647.00
1114.70	2546.00
1115.10	2548.00
1115.51	2546.00
1115.92	2551.00
>>>>>End Processed Spectral Data<<<<<
