SpectraSuite Data File
++++++++++++++++++++++++++++++++++++
Date: Thu Aug 05 09:52:33 EEST 2021
User: CanSEE
Dark Spectrum Present: No
Reference Spectrum Present: No
Number of Sampled Component Spectra: 1
Spectrometers: MAYP112785
Integration Time (usec): 10000 (MAYP112785)
Spectra Averaged: 1 (MAYP112785)
Boxcar Smoothing: 0 (MAYP112785)
Correct for Electrical Dark: No (MAYP112785)
Strobe/Lamp Enabled: No (MAYP112785)
Correct for Detector Non-linearity: No (MAYP112785)
Correct for Stray Light: No (MAYP112785)
Number of Pixels in Processed Spectrum: 2068
>>>>>Begin Processed Spectral Data<<<<<
198.35	3433.00
198.82	2471.00
199.30	2573.00
199.77	2554.00
200.24	2581.00
200.71	2576.00
201.18	2582.00
201.65	2583.00
202.13	2580.00
202.60	2576.00
203.07	2581.00
203.54	2580.00
204.01	2584.00
204.48	2584.00
204.96	2586.00
205.43	2581.00
205.90	2584.00
206.37	2580.00
206.84	2576.00
207.31	2578.00
207.78	2575.00
208.26	2572.00
208.73	2580.00
209.20	2584.00
209.67	2585.00
210.14	2584.00
210.61	2579.00
211.08	2582.00
211.56	2580.00
212.03	2576.00
212.50	2580.00
212.97	2589.00
213.44	2571.00
213.91	2576.00
214.38	2576.00
214.85	2586.00
215.33	2585.00
215.80	2583.00
216.27	2580.00
216.74	2585.00
217.21	2592.00
217.68	2587.00
218.15	2576.00
218.62	2591.00
219.09	2575.00
219.57	2584.00
220.04	2583.00
220.51	2586.00
220.98	2579.00
221.45	2578.00
221.92	2579.00
222.39	2584.00
222.86	2579.00
223.33	2586.00
223.80	2582.00
224.27	2577.00
224.74	2586.00
225.22	2582.00
225.69	2575.00
226.16	2578.00
226.63	2585.00
227.10	2582.00
227.57	2576.00
228.04	2585.00
228.51	2578.00
228.98	2584.00
229.45	2576.00
229.92	2579.00
230.39	2582.00
230.86	2576.00
231.33	2583.00
231.80	2580.00
232.27	2582.00
232.75	2582.00
233.22	2589.00
233.69	2586.00
234.16	2581.00
234.63	2582.00
235.10	2581.00
235.57	2585.00
236.04	2578.00
236.51	2580.00
236.98	2583.00
237.45	2581.00
237.92	2587.00
238.39	2576.00
238.86	2586.00
239.33	2625.00
239.80	2583.00
240.27	2580.00
240.74	2578.00
241.21	2585.00
241.68	2582.00
242.15	2586.00
242.62	2587.00
243.09	2583.00
243.56	2581.00
244.03	2578.00
244.50	2587.00
244.97	2581.00
245.44	2599.00
245.91	2581.00
246.38	2579.00
246.85	2581.00
247.32	2577.00
247.79	2588.00
248.26	2582.00
248.73	2580.00
249.20	2583.00
249.67	2591.00
250.14	2579.00
250.61	2585.00
251.08	2578.00
251.55	2582.00
252.02	2584.00
252.49	2582.00
252.96	2582.00
253.43	2583.00
253.90	2583.00
254.37	2576.00
254.84	2582.00
255.31	2590.00
255.77	2582.00
256.24	2579.00
256.71	2592.00
257.18	2582.00
257.65	2581.00
258.12	2584.00
258.59	2583.00
259.06	2584.00
259.53	2586.00
260.00	2580.00
260.47	2582.00
260.94	2581.00
261.41	2584.00
261.88	2582.00
262.35	2586.00
262.81	2581.00
263.28	2587.00
263.75	2583.00
264.22	2589.00
264.69	2587.00
265.16	2586.00
265.63	2587.00
266.10	2585.00
266.57	2580.00
267.04	2586.00
267.51	2583.00
267.97	2583.00
268.44	2583.00
268.91	2587.00
269.38	2584.00
269.85	2585.00
270.32	2585.00
270.79	2588.00
271.26	2585.00
271.73	2581.00
272.19	2586.00
272.66	2583.00
273.13	2577.00
273.60	2588.00
274.07	2579.00
274.54	2588.00
275.01	2588.00
275.48	2582.00
275.94	2583.00
276.41	2573.00
276.88	2586.00
277.35	2581.00
277.82	2572.00
278.29	2588.00
278.76	2583.00
279.22	2584.00
279.69	2581.00
280.16	2593.00
280.63	2575.00
281.10	2588.00
281.57	2584.00
282.04	2575.00
282.50	2585.00
282.97	2579.00
283.44	2583.00
283.91	2586.00
284.38	2584.00
284.85	2584.00
285.31	2589.00
285.78	2584.00
286.25	2587.00
286.72	2594.00
287.19	2577.00
287.65	2583.00
288.12	2577.00
288.59	2579.00
289.06	2590.00
289.53	2587.00
289.99	2587.00
290.46	2585.00
290.93	2583.00
291.40	2577.00
291.87	2581.00
292.33	2580.00
292.80	2576.00
293.27	2581.00
293.74	2576.00
294.21	2583.00
294.67	2583.00
295.14	2586.00
295.61	2585.00
296.08	2580.00
296.54	2587.00
297.01	2583.00
297.48	2596.00
297.95	2578.00
298.42	2583.00
298.88	2577.00
299.35	2589.00
299.82	2588.00
300.29	2581.00
300.75	2577.00
301.22	2582.00
301.69	2585.00
302.16	2582.00
302.62	2577.00
303.09	2588.00
303.56	2585.00
304.03	2579.00
304.49	2592.00
304.96	2591.00
305.43	2587.00
305.90	2589.00
306.36	2585.00
306.83	2592.00
307.30	2590.00
307.76	2586.00
308.23	2595.00
308.70	2597.00
309.17	2594.00
309.63	2601.00
310.10	2592.00
310.57	2594.00
311.03	2609.00
311.50	2609.00
311.97	2611.00
312.44	2616.00
312.90	2618.00
313.37	2617.00
313.84	2620.00
314.30	2622.00
314.77	2630.00
315.24	2625.00
315.70	2626.00
316.17	2637.00
316.64	2635.00
317.10	2654.00
317.57	2666.00
318.04	2650.00
318.50	2650.00
318.97	2657.00
319.44	2663.00
319.90	2654.00
320.37	2667.00
320.84	2681.00
321.30	2672.00
321.77	2666.00
322.24	2677.00
322.70	2676.00
323.17	2679.00
323.64	2669.00
324.10	2697.00
324.57	2703.00
325.04	2697.00
325.50	2723.00
325.97	2734.00
326.44	2748.00
326.90	2743.00
327.37	2742.00
327.84	2747.00
328.30	2749.00
328.77	2740.00
329.23	2765.00
329.70	2788.00
330.17	2790.00
330.63	2774.00
331.10	2757.00
331.56	2763.00
332.03	2762.00
332.50	2777.00
332.96	2783.00
333.43	2767.00
333.90	2766.00
334.36	2775.00
334.83	2798.00
335.29	2768.00
335.76	2785.00
336.22	2768.00
336.69	2747.00
337.16	2767.00
337.62	2771.00
338.09	2767.00
338.55	2800.00
339.02	2792.00
339.49	2800.00
339.95	2820.00
340.42	2815.00
340.88	2829.00
341.35	2806.00
341.81	2814.00
342.28	2823.00
342.75	2844.00
343.21	2835.00
343.68	2831.00
344.14	2797.00
344.61	2780.00
345.07	2820.00
345.54	2826.00
346.00	2832.00
346.47	2812.00
346.93	2826.00
347.40	2871.00
347.87	2848.00
348.33	2827.00
348.80	2830.00
349.26	2872.00
349.73	2847.00
350.19	2868.00
350.66	2887.00
351.12	2903.00
351.59	2876.00
352.05	2867.00
352.52	2867.00
352.98	2857.00
353.45	2894.00
353.91	2936.00
354.38	2901.00
354.84	2910.00
355.31	2889.00
355.77	2888.00
356.24	2891.00
356.70	2872.00
357.17	2841.00
357.63	2840.00
358.10	2840.00
358.56	2828.00
359.03	2822.00
359.49	2881.00
359.96	2911.00
360.42	2897.00
360.89	2897.00
361.35	2874.00
361.82	2890.00
362.28	2917.00
362.75	2919.00
363.21	2944.00
363.67	2914.00
364.14	2922.00
364.60	2927.00
365.07	2942.00
365.53	2961.00
366.00	3008.00
366.46	3000.00
366.93	2986.00
367.39	2956.00
367.86	2990.00
368.32	2960.00
368.78	2996.00
369.25	2982.00
369.71	3024.00
370.18	3016.00
370.64	2993.00
371.11	2989.00
371.57	3006.00
372.03	3014.00
372.50	2948.00
372.96	2956.00
373.43	2942.00
373.89	2911.00
374.35	2958.00
374.82	2954.00
375.28	2956.00
375.75	3021.00
376.21	3025.00
376.67	3026.00
377.14	3024.00
377.60	3086.00
378.07	3110.00
378.53	3107.00
378.99	3080.00
379.46	3060.00
379.92	3040.00
380.39	3031.00
380.85	3046.00
381.31	3028.00
381.78	2997.00
382.24	2940.00
382.70	2935.00
383.17	2934.00
383.63	2933.00
384.09	2978.00
384.56	2999.00
385.02	3042.00
385.48	3046.00
385.95	3037.00
386.41	3037.00
386.88	3042.00
387.34	3025.00
387.80	3049.00
388.27	3056.00
388.73	3063.00
389.19	3108.00
389.66	3150.00
390.12	3176.00
390.58	3172.00
391.05	3171.00
391.51	3191.00
391.97	3166.00
392.43	3107.00
392.90	3018.00
393.36	2958.00
393.82	2990.00
394.29	3037.00
394.75	3135.00
395.21	3185.00
395.68	3207.00
396.14	3166.00
396.60	3108.00
397.07	3064.00
397.53	3124.00
397.99	3263.00
398.45	3367.00
398.92	3456.00
399.38	3494.00
399.84	3489.00
400.31	3541.00
400.77	3530.00
401.23	3556.00
401.69	3539.00
402.16	3590.00
402.62	3578.00
403.08	3569.00
403.54	3541.00
404.01	3566.00
404.47	3580.00
404.93	3534.00
405.39	3569.00
405.86	3561.00
406.32	3549.00
406.78	3538.00
407.24	3561.00
407.71	3614.00
408.17	3600.00
408.63	3605.00
409.09	3677.00
409.56	3655.00
410.02	3632.00
410.48	3584.00
410.94	3630.00
411.40	3715.00
411.87	3748.00
412.33	3735.00
412.79	3747.00
413.25	3728.00
413.71	3681.00
414.18	3758.00
414.64	3735.00
415.10	3735.00
415.56	3800.00
416.02	3777.00
416.49	3760.00
416.95	3817.00
417.41	3730.00
417.87	3744.00
418.33	3739.00
418.80	3728.00
419.26	3754.00
419.72	3785.00
420.18	3787.00
420.64	3754.00
421.10	3821.00
421.57	3847.00
422.03	3819.00
422.49	3800.00
422.95	3790.00
423.41	3769.00
423.87	3790.00
424.34	3813.00
424.80	3824.00
425.26	3787.00
425.72	3801.00
426.18	3798.00
426.64	3780.00
427.10	3796.00
427.57	3712.00
428.03	3763.00
428.49	3754.00
428.95	3690.00
429.41	3669.00
429.87	3617.00
430.33	3635.00
430.79	3609.00
431.26	3687.00
431.72	3751.00
432.18	3893.00
432.64	3875.00
433.10	3848.00
433.56	3889.00
434.02	3885.00
434.48	3863.00
434.94	3905.00
435.40	4051.00
435.87	4015.00
436.33	3967.00
436.79	4061.00
437.25	4024.00
437.71	3966.00
438.17	3927.00
438.63	3908.00
439.09	3893.00
439.55	4005.00
440.01	4047.00
440.47	4066.00
440.93	4107.00
441.39	4105.00
441.85	4164.00
442.32	4121.00
442.78	4222.00
443.24	4194.00
443.70	4195.00
444.16	4193.00
444.62	4249.00
445.08	4295.00
445.54	4206.00
446.00	4174.00
446.46	4224.00
446.92	4289.00
447.38	4279.00
447.84	4311.00
448.30	4317.00
448.76	4350.00
449.22	4401.00
449.68	4411.00
450.14	4454.00
450.60	4454.00
451.06	4441.00
451.52	4464.00
451.98	4391.00
452.44	4393.00
452.90	4318.00
453.36	4374.00
453.82	4361.00
454.28	4381.00
454.74	4432.00
455.20	4458.00
455.66	4485.00
456.12	4477.00
456.58	4513.00
457.04	4472.00
457.50	4513.00
457.96	4519.00
458.42	4515.00
458.88	4395.00
459.34	4484.00
459.80	4485.00
460.26	4536.00
460.72	4500.00
461.18	4571.00
461.64	4604.00
462.10	4581.00
462.55	4608.00
463.01	4559.00
463.47	4523.00
463.93	4554.00
464.39	4580.00
464.85	4535.00
465.31	4564.00
465.77	4528.00
466.23	4553.00
466.69	4545.00
467.15	4537.00
467.61	4573.00
468.07	4542.00
468.52	4548.00
468.98	4582.00
469.44	4565.00
469.90	4632.00
470.36	4510.00
470.82	4590.00
471.28	4657.00
471.74	4609.00
472.20	4655.00
472.66	4689.00
473.11	4670.00
473.57	4662.00
474.03	4679.00
474.49	4671.00
474.95	4731.00
475.41	4736.00
475.87	4658.00
476.33	4718.00
476.78	4654.00
477.24	4682.00
477.70	4687.00
478.16	4760.00
478.62	4757.00
479.08	4666.00
479.54	4784.00
479.99	4790.00
480.45	4827.00
480.91	4801.00
481.37	4789.00
481.83	4821.00
482.29	4840.00
482.74	4726.00
483.20	4769.00
483.66	4760.00
484.12	4769.00
484.58	4679.00
485.04	4602.00
485.49	4551.00
485.95	4531.00
486.41	4451.00
486.87	4472.00
487.33	4643.00
487.78	4657.00
488.24	4746.00
488.70	4809.00
489.16	4767.00
489.62	4751.00
490.07	4787.00
490.53	4821.00
490.99	4799.00
491.45	4767.00
491.90	4746.00
492.36	4778.00
492.82	4715.00
493.28	4775.00
493.74	4864.00
494.19	4879.00
494.65	4842.00
495.11	4906.00
495.57	4854.00
496.02	4839.00
496.48	4792.00
496.94	4914.00
497.40	4861.00
497.85	4819.00
498.31	4853.00
498.77	4779.00
499.23	4791.00
499.68	4800.00
500.14	4832.00
500.60	4779.00
501.06	4730.00
501.51	4752.00
501.97	4772.00
502.43	4737.00
502.88	4783.00
503.34	4795.00
503.80	4819.00
504.26	4821.00
504.71	4836.00
505.17	4878.00
505.63	4899.00
506.08	4863.00
506.54	4904.00
507.00	4838.00
507.45	4857.00
507.91	4865.00
508.37	4908.00
508.82	4855.00
509.28	4905.00
509.74	4914.00
510.19	4902.00
510.65	4927.00
511.11	4921.00
511.56	4942.00
512.02	4898.00
512.48	4931.00
512.93	4889.00
513.39	4842.00
513.85	4947.00
514.30	4887.00
514.76	4868.00
515.22	4878.00
515.67	4802.00
516.13	4803.00
516.59	4829.00
517.04	4723.00
517.50	4602.00
517.95	4701.00
518.41	4817.00
518.87	4808.00
519.32	4826.00
519.78	4867.00
520.24	4895.00
520.69	4976.00
521.15	4916.00
521.60	4971.00
522.06	4914.00
522.52	4929.00
522.97	5014.00
523.43	4919.00
523.88	5043.00
524.34	5052.00
524.80	5090.00
525.25	5013.00
525.71	5003.00
526.16	4889.00
526.62	4852.00
527.07	4867.00
527.53	4894.00
527.99	5000.00
528.44	5089.00
528.90	5078.00
529.35	5123.00
529.81	5119.00
530.26	5088.00
530.72	5131.00
531.17	5075.00
531.63	5066.00
532.09	5053.00
532.54	5043.00
533.00	5040.00
533.45	5066.00
533.91	5103.00
534.36	5148.00
534.82	5172.00
535.27	5122.00
535.73	5162.00
536.18	5156.00
536.64	5070.00
537.09	5079.00
537.55	5064.00
538.00	5132.00
538.46	5169.00
538.91	5071.00
539.37	5033.00
539.82	5031.00
540.28	5024.00
540.73	5107.00
541.19	5049.00
541.64	5082.00
542.10	5090.00
542.55	5137.00
543.01	5102.00
543.46	5080.00
543.92	5153.00
544.37	5136.00
544.83	5195.00
545.28	5122.00
545.74	5108.00
546.19	5139.00
546.64	5164.00
547.10	5195.00
547.55	5153.00
548.01	5167.00
548.46	5175.00
548.92	5175.00
549.37	5146.00
549.83	5191.00
550.28	5137.00
550.73	5198.00
551.19	5112.00
551.64	5210.00
552.10	5179.00
552.55	5188.00
553.00	5231.00
553.46	5196.00
553.91	5186.00
554.37	5190.00
554.82	5243.00
555.28	5274.00
555.73	5194.00
556.18	5262.00
556.64	5153.00
557.09	5156.00
557.54	5122.00
558.00	5144.00
558.45	5091.00
558.91	5123.00
559.36	5092.00
559.81	5084.00
560.27	5146.00
560.72	5197.00
561.17	5176.00
561.63	5166.00
562.08	5155.00
562.54	5191.00
562.99	5225.00
563.44	5201.00
563.90	5183.00
564.35	5174.00
564.80	5213.00
565.26	5102.00
565.71	5152.00
566.16	5143.00
566.62	5148.00
567.07	5152.00
567.52	5150.00
567.98	5148.00
568.43	5134.00
568.88	5178.00
569.34	5162.00
569.79	5147.00
570.24	5111.00
570.69	5088.00
571.15	5104.00
571.60	5169.00
572.05	5156.00
572.51	5192.00
572.96	5197.00
573.41	5251.00
573.86	5186.00
574.32	5222.00
574.77	5148.00
575.22	5202.00
575.68	5190.00
576.13	5183.00
576.58	5122.00
577.03	5164.00
577.49	5192.00
577.94	5140.00
578.39	5167.00
578.84	5191.00
579.30	5196.00
579.75	5171.00
580.20	5253.00
580.65	5230.00
581.11	5209.00
581.56	5233.00
582.01	5279.00
582.46	5277.00
582.92	5257.00
583.37	5279.00
583.82	5265.00
584.27	5285.00
584.72	5321.00
585.18	5247.00
585.63	5256.00
586.08	5183.00
586.53	5245.00
586.98	5269.00
587.44	5238.00
587.89	5124.00
588.34	5117.00
588.79	4994.00
589.24	4996.00
589.70	4934.00
590.15	5074.00
590.60	5101.00
591.05	5159.00
591.50	5138.00
591.96	5168.00
592.41	5152.00
592.86	5169.00
593.31	5137.00
593.76	5174.00
594.21	5122.00
594.66	5172.00
595.12	5136.00
595.57	5206.00
596.02	5169.00
596.47	5203.00
596.92	5197.00
597.37	5232.00
597.82	5256.00
598.28	5172.00
598.73	5178.00
599.18	5123.00
599.63	5156.00
600.08	5191.00
600.53	5206.00
600.98	5181.00
601.43	5186.00
601.88	5184.00
602.34	5225.00
602.79	5191.00
603.24	5279.00
603.69	5267.00
604.14	5272.00
604.59	5254.00
605.04	5259.00
605.49	5274.00
605.94	5334.00
606.39	5231.00
606.84	5284.00
607.30	5271.00
607.75	5270.00
608.20	5234.00
608.65	5271.00
609.10	5252.00
609.55	5271.00
610.00	5241.00
610.45	5209.00
610.90	5307.00
611.35	5216.00
611.80	5267.00
612.25	5262.00
612.70	5262.00
613.15	5175.00
613.60	5243.00
614.05	5191.00
614.50	5275.00
614.95	5229.00
615.40	5256.00
615.85	5215.00
616.30	5137.00
616.75	5125.00
617.20	5172.00
617.65	5189.00
618.10	5245.00
618.55	5238.00
619.00	5293.00
619.45	5293.00
619.90	5353.00
620.35	5268.00
620.80	5265.00
621.25	5283.00
621.70	5233.00
622.15	5256.00
622.60	5229.00
623.05	5203.00
623.50	5242.00
623.95	5189.00
624.40	5158.00
624.85	5178.00
625.30	5112.00
625.75	5161.00
626.20	5206.00
626.65	5230.00
627.10	5231.00
627.55	5144.00
627.99	5117.00
628.44	5173.00
628.89	5126.00
629.34	5184.00
629.79	5142.00
630.24	5185.00
630.69	5205.00
631.14	5162.00
631.59	5163.00
632.04	5190.00
632.49	5208.00
632.94	5203.00
633.38	5254.00
633.83	5164.00
634.28	5228.00
634.73	5281.00
635.18	5293.00
635.63	5246.00
636.08	5234.00
636.53	5287.00
636.97	5235.00
637.42	5282.00
637.87	5363.00
638.32	5335.00
638.77	5346.00
639.22	5288.00
639.67	5260.00
640.11	5306.00
640.56	5313.00
641.01	5211.00
641.46	5311.00
641.91	5286.00
642.36	5249.00
642.81	5313.00
643.25	5308.00
643.70	5314.00
644.15	5290.00
644.60	5299.00
645.05	5346.00
645.49	5287.00
645.94	5264.00
646.39	5279.00
646.84	5223.00
647.29	5182.00
647.73	5203.00
648.18	5241.00
648.63	5176.00
649.08	5132.00
649.53	5116.00
649.97	5177.00
650.42	5255.00
650.87	5280.00
651.32	5259.00
651.77	5258.00
652.21	5231.00
652.66	5336.00
653.11	5257.00
653.56	5251.00
654.00	5239.00
654.45	5245.00
654.90	5227.00
655.35	5164.00
655.79	5035.00
656.24	4778.00
656.69	4894.00
657.14	4932.00
657.58	5083.00
658.03	5168.00
658.48	5212.00
658.92	5202.00
659.37	5231.00
659.82	5213.00
660.27	5271.00
660.71	5286.00
661.16	5245.00
661.61	5276.00
662.05	5253.00
662.50	5298.00
662.95	5308.00
663.39	5203.00
663.84	5341.00
664.29	5305.00
664.74	5345.00
665.18	5314.00
665.63	5328.00
666.08	5309.00
666.52	5270.00
666.97	5245.00
667.42	5362.00
667.86	5351.00
668.31	5270.00
668.76	5359.00
669.20	5294.00
669.65	5306.00
670.09	5304.00
670.54	5235.00
670.99	5263.00
671.43	5189.00
671.88	5255.00
672.33	5315.00
672.77	5227.00
673.22	5296.00
673.66	5214.00
674.11	5268.00
674.56	5260.00
675.00	5251.00
675.45	5352.00
675.90	5293.00
676.34	5329.00
676.79	5244.00
677.23	5237.00
677.68	5283.00
678.12	5233.00
678.57	5265.00
679.02	5256.00
679.46	5247.00
679.91	5266.00
680.35	5231.00
680.80	5250.00
681.25	5273.00
681.69	5254.00
682.14	5291.00
682.58	5295.00
683.03	5217.00
683.47	5224.00
683.92	5236.00
684.36	5199.00
684.81	5174.00
685.25	5159.00
685.70	5151.00
686.15	5114.00
686.59	4886.00
687.04	4503.00
687.48	4439.00
687.93	4486.00
688.37	4682.00
688.82	4714.00
689.26	4721.00
689.71	4733.00
690.15	4795.00
690.60	4798.00
691.04	4855.00
691.49	4908.00
691.93	4970.00
692.38	4968.00
692.82	4929.00
693.27	4953.00
693.71	4896.00
694.16	4932.00
694.60	4911.00
695.04	4912.00
695.49	4930.00
695.93	4977.00
696.38	5043.00
696.82	5083.00
697.27	5101.00
697.71	5061.00
698.16	5017.00
698.60	5012.00
699.04	4968.00
699.49	4903.00
699.93	4945.00
700.38	4990.00
700.82	4927.00
701.27	4955.00
701.71	4974.00
702.15	4906.00
702.60	4944.00
703.04	4923.00
703.49	4990.00
703.93	4963.00
704.37	5005.00
704.82	5075.00
705.26	5079.00
705.71	4974.00
706.15	5050.00
706.59	5013.00
707.04	4983.00
707.48	4994.00
707.93	4994.00
708.37	5006.00
708.81	4998.00
709.26	5052.00
709.70	5016.00
710.14	5028.00
710.59	5070.00
711.03	5053.00
711.47	4986.00
711.92	4979.00
712.36	5005.00
712.80	5001.00
713.25	4962.00
713.69	5017.00
714.13	4986.00
714.58	5017.00
715.02	4931.00
715.46	4938.00
715.91	4901.00
716.35	4828.00
716.79	4653.00
717.24	4551.00
717.68	4460.00
718.12	4461.00
718.57	4313.00
719.01	4282.00
719.45	4281.00
719.89	4274.00
720.34	4265.00
720.78	4356.00
721.22	4592.00
721.66	4666.00
722.11	4740.00
722.55	4672.00
722.99	4611.00
723.44	4498.00
723.88	4404.00
724.32	4369.00
724.76	4403.00
725.21	4416.00
725.65	4396.00
726.09	4478.00
726.53	4492.00
726.97	4523.00
727.42	4480.00
727.86	4378.00
728.30	4484.00
728.74	4457.00
729.19	4421.00
729.63	4437.00
730.07	4504.00
730.51	4478.00
730.95	4505.00
731.40	4518.00
731.84	4550.00
732.28	4644.00
732.72	4707.00
733.16	4681.00
733.61	4703.00
734.05	4800.00
734.49	4798.00
734.93	4754.00
735.37	4754.00
735.81	4755.00
736.26	4743.00
736.70	4704.00
737.14	4710.00
737.58	4754.00
738.02	4769.00
738.46	4697.00
738.90	4711.00
739.35	4694.00
739.79	4714.00
740.23	4806.00
740.67	4763.00
741.11	4741.00
741.55	4726.00
741.99	4741.00
742.44	4803.00
742.88	4773.00
743.32	4777.00
743.76	4774.00
744.20	4774.00
744.64	4708.00
745.08	4820.00
745.52	4781.00
745.96	4837.00
746.40	4803.00
746.84	4795.00
747.29	4783.00
747.73	4795.00
748.17	4803.00
748.61	4800.00
749.05	4811.00
749.49	4754.00
749.93	4776.00
750.37	4814.00
750.81	4819.00
751.25	4841.00
751.69	4805.00
752.13	4882.00
752.57	4774.00
753.01	4832.00
753.45	4772.00
753.89	4784.00
754.33	4857.00
754.77	4801.00
755.21	4786.00
755.65	4835.00
756.09	4801.00
756.53	4802.00
756.97	4763.00
757.41	4763.00
757.85	4730.00
758.29	4705.00
758.73	4652.00
759.17	4494.00
759.61	3934.00
760.05	3310.00
760.49	3004.00
760.93	2937.00
761.37	3102.00
761.81	3484.00
762.25	3646.00
762.69	3493.00
763.13	3334.00
763.57	3377.00
764.01	3463.00
764.45	3580.00
764.89	3710.00
765.33	3830.00
765.77	3995.00
766.21	4142.00
766.65	4262.00
767.09	4418.00
767.53	4480.00
767.96	4529.00
768.40	4566.00
768.84	4577.00
769.28	4588.00
769.72	4630.00
770.16	4638.00
770.60	4678.00
771.04	4681.00
771.48	4664.00
771.92	4706.00
772.35	4691.00
772.79	4670.00
773.23	4674.00
773.67	4742.00
774.11	4695.00
774.55	4638.00
774.99	4632.00
775.43	4615.00
775.86	4662.00
776.30	4686.00
776.74	4743.00
777.18	4653.00
777.62	4644.00
778.06	4642.00
778.50	4751.00
778.93	4666.00
779.37	4608.00
779.81	4620.00
780.25	4602.00
780.69	4599.00
781.12	4593.00
781.56	4625.00
782.00	4646.00
782.44	4641.00
782.88	4620.00
783.32	4576.00
783.75	4564.00
784.19	4594.00
784.63	4564.00
785.07	4656.00
785.50	4547.00
785.94	4585.00
786.38	4548.00
786.82	4549.00
787.26	4517.00
787.69	4537.00
788.13	4503.00
788.57	4510.00
789.01	4470.00
789.44	4458.00
789.88	4504.00
790.32	4471.00
790.76	4444.00
791.19	4409.00
791.63	4389.00
792.07	4403.00
792.51	4380.00
792.94	4426.00
793.38	4420.00
793.82	4422.00
794.25	4425.00
794.69	4430.00
795.13	4402.00
795.56	4462.00
796.00	4380.00
796.44	4345.00
796.88	4387.00
797.31	4388.00
797.75	4412.00
798.19	4377.00
798.62	4392.00
799.06	4378.00
799.50	4372.00
799.93	4373.00
800.37	4348.00
800.81	4351.00
801.24	4326.00
801.68	4386.00
802.12	4335.00
802.55	4317.00
802.99	4325.00
803.43	4307.00
803.86	4315.00
804.30	4291.00
804.73	4297.00
805.17	4284.00
805.61	4317.00
806.04	4377.00
806.48	4386.00
806.92	4317.00
807.35	4300.00
807.79	4285.00
808.22	4275.00
808.66	4232.00
809.10	4269.00
809.53	4220.00
809.97	4222.00
810.40	4239.00
810.84	4189.00
811.27	4199.00
811.71	4198.00
812.15	4221.00
812.58	4177.00
813.02	4119.00
813.45	4010.00
813.89	4002.00
814.32	3997.00
814.76	3912.00
815.19	3841.00
815.63	3862.00
816.07	3770.00
816.50	3771.00
816.94	3811.00
817.37	3910.00
817.81	3807.00
818.24	3874.00
818.68	3883.00
819.11	3897.00
819.55	3864.00
819.98	3867.00
820.42	3972.00
820.85	4070.00
821.29	4042.00
821.72	3997.00
822.16	3896.00
822.59	3724.00
823.03	3615.00
823.46	3685.00
823.90	3867.00
824.33	3956.00
824.77	4022.00
825.20	4043.00
825.63	4019.00
826.07	3996.00
826.50	4035.00
826.94	4008.00
827.37	3915.00
827.81	3870.00
828.24	3874.00
828.68	3891.00
829.11	3870.00
829.54	3855.00
829.98	3957.00
830.41	3917.00
830.85	3971.00
831.28	4000.00
831.71	3936.00
832.15	3895.00
832.58	3976.00
833.02	3950.00
833.45	3915.00
833.88	3963.00
834.32	4006.00
834.75	3966.00
835.19	4016.00
835.62	3996.00
836.05	4033.00
836.49	4014.00
836.92	4049.00
837.35	4015.00
837.79	4069.00
838.22	4071.00
838.66	4043.00
839.09	4081.00
839.52	4116.00
839.96	4076.00
840.39	4055.00
840.82	4043.00
841.26	4031.00
841.69	4025.00
842.12	4027.00
842.56	4062.00
842.99	4025.00
843.42	4046.00
843.85	4054.00
844.29	4057.00
844.72	4066.00
845.15	4075.00
845.59	4139.00
846.02	4039.00
846.45	4062.00
846.88	4090.00
847.32	4041.00
847.75	4013.00
848.18	4024.00
848.62	4050.00
849.05	4013.00
849.48	3917.00
849.91	3926.00
850.35	3945.00
850.78	3998.00
851.21	3990.00
851.64	4021.00
852.08	4027.00
852.51	4067.00
852.94	4061.00
853.37	3985.00
853.80	3840.00
854.24	3697.00
854.67	3810.00
855.10	3931.00
855.53	3947.00
855.97	3971.00
856.40	4003.00
856.83	4035.00
857.26	4055.00
857.69	4062.00
858.13	4028.00
858.56	4030.00
858.99	4047.00
859.42	4026.00
859.85	3997.00
860.28	4029.00
860.72	4050.00
861.15	4027.00
861.58	3997.00
862.01	3977.00
862.44	3996.00
862.87	4015.00
863.30	3973.00
863.74	3974.00
864.17	3972.00
864.60	3989.00
865.03	3930.00
865.46	3930.00
865.89	3821.00
866.32	3782.00
866.75	3880.00
867.19	3970.00
867.62	3996.00
868.05	3948.00
868.48	3994.00
868.91	3956.00
869.34	3988.00
869.77	3941.00
870.20	3977.00
870.63	3951.00
871.06	3914.00
871.49	3958.00
871.93	3961.00
872.36	3974.00
872.79	3950.00
873.22	3937.00
873.65	3950.00
874.08	3933.00
874.51	3929.00
874.94	3961.00
875.37	3939.00
875.80	3939.00
876.23	3928.00
876.66	3962.00
877.09	3918.00
877.52	3927.00
877.95	3959.00
878.38	3914.00
878.81	3889.00
879.24	3872.00
879.67	3955.00
880.10	3897.00
880.53	3832.00
880.96	3888.00
881.39	3921.00
881.82	3901.00
882.25	3906.00
882.68	3940.00
883.11	3938.00
883.54	3911.00
883.97	3930.00
884.40	3928.00
884.83	3892.00
885.26	3890.00
885.69	3857.00
886.12	3880.00
886.55	3854.00
886.98	3849.00
887.40	3901.00
887.83	3874.00
888.26	3892.00
888.69	3903.00
889.12	3932.00
889.55	3844.00
889.98	3884.00
890.41	3900.00
890.84	3899.00
891.27	3862.00
891.70	3909.00
892.12	3813.00
892.55	3786.00
892.98	3812.00
893.41	3768.00
893.84	3743.00
894.27	3693.00
894.70	3651.00
895.13	3691.00
895.55	3658.00
895.98	3567.00
896.41	3549.00
896.84	3555.00
897.27	3552.00
897.70	3599.00
898.13	3551.00
898.55	3394.00
898.98	3397.00
899.41	3566.00
899.84	3507.00
900.27	3477.00
900.70	3505.00
901.12	3493.00
901.55	3445.00
901.98	3451.00
902.41	3495.00
902.84	3581.00
903.26	3672.00
903.69	3682.00
904.12	3665.00
904.55	3671.00
904.97	3623.00
905.40	3614.00
905.83	3554.00
906.26	3568.00
906.69	3469.00
907.11	3480.00
907.54	3465.00
907.97	3460.00
908.40	3444.00
908.82	3422.00
909.25	3445.00
909.68	3441.00
910.10	3433.00
910.53	3460.00
910.96	3504.00
911.39	3459.00
911.81	3496.00
912.24	3474.00
912.67	3366.00
913.09	3305.00
913.52	3398.00
913.95	3446.00
914.38	3464.00
914.80	3366.00
915.23	3354.00
915.66	3456.00
916.08	3478.00
916.51	3467.00
916.94	3390.00
917.36	3380.00
917.79	3417.00
918.22	3494.00
918.64	3501.00
919.07	3467.00
919.50	3531.00
919.92	3515.00
920.35	3501.00
920.78	3463.00
921.20	3435.00
921.63	3494.00
922.05	3493.00
922.48	3458.00
922.91	3443.00
923.33	3413.00
923.76	3431.00
924.18	3438.00
924.61	3435.00
925.04	3407.00
925.46	3410.00
925.89	3439.00
926.31	3440.00
926.74	3356.00
927.17	3279.00
927.59	3209.00
928.02	3232.00
928.44	3188.00
928.87	3163.00
929.29	3089.00
929.72	3053.00
930.15	3025.00
930.57	3014.00
931.00	2947.00
931.42	2899.00
931.85	2863.00
932.27	2872.00
932.70	2830.00
933.12	2788.00
933.55	2782.00
933.97	2772.00
934.40	2848.00
934.82	2822.00
935.25	2784.00
935.67	2810.00
936.10	2804.00
936.52	2769.00
936.95	2762.00
937.37	2770.00
937.80	2793.00
938.22	2861.00
938.65	2922.00
939.07	2917.00
939.50	2897.00
939.92	2857.00
940.35	2822.00
940.77	2827.00
941.19	2867.00
941.62	2850.00
942.04	2800.00
942.47	2785.00
942.89	2821.00
943.32	2765.00
943.74	2746.00
944.16	2804.00
944.59	2812.00
945.01	2797.00
945.44	2760.00
945.86	2799.00
946.29	2786.00
946.71	2833.00
947.13	2817.00
947.56	2798.00
947.98	2849.00
948.40	2850.00
948.83	2819.00
949.25	2780.00
949.68	2817.00
950.10	2920.00
950.52	2934.00
950.95	2854.00
951.37	2809.00
951.79	2806.00
952.22	2852.00
952.64	2901.00
953.06	2891.00
953.49	2893.00
953.91	2859.00
954.33	2894.00
954.76	2859.00
955.18	2906.00
955.60	2883.00
956.03	2891.00
956.45	2938.00
956.87	2999.00
957.30	2941.00
957.72	2934.00
958.14	2905.00
958.56	2903.00
958.99	2942.00
959.41	2991.00
959.83	2970.00
960.26	3023.00
960.68	3013.00
961.10	2998.00
961.52	2961.00
961.95	2978.00
962.37	3082.00
962.79	3025.00
963.21	3047.00
963.64	3022.00
964.06	3054.00
964.48	3039.00
964.90	3080.00
965.32	3023.00
965.75	3048.00
966.17	3090.00
966.59	3140.00
967.01	3164.00
967.44	3163.00
967.86	3193.00
968.28	3200.00
968.70	3203.00
969.12	3203.00
969.54	3167.00
969.97	3205.00
970.39	3223.00
970.81	3201.00
971.23	3200.00
971.65	3175.00
972.07	3186.00
972.50	3155.00
972.92	3128.00
973.34	3138.00
973.76	3152.00
974.18	3151.00
974.60	3127.00
975.02	3107.00
975.45	3105.00
975.87	3124.00
976.29	3181.00
976.71	3160.00
977.13	3137.00
977.55	3170.00
977.97	3143.00
978.39	3143.00
978.81	3159.00
979.24	3139.00
979.66	3162.00
980.08	3215.00
980.50	3201.00
980.92	3224.00
981.34	3194.00
981.76	3189.00
982.18	3183.00
982.60	3212.00
983.02	3212.00
983.44	3206.00
983.86	3203.00
984.28	3206.00
984.70	3170.00
985.12	3201.00
985.54	3174.00
985.96	3181.00
986.38	3203.00
986.80	3164.00
987.23	3199.00
987.65	3218.00
988.07	3232.00
988.49	3206.00
988.91	3234.00
989.33	3205.00
989.74	3199.00
990.16	3207.00
990.58	3200.00
991.00	3184.00
991.42	3179.00
991.84	3182.00
992.26	3172.00
992.68	3183.00
993.10	3184.00
993.52	3195.00
993.94	3184.00
994.36	3184.00
994.78	3148.00
995.20	3172.00
995.62	3159.00
996.04	3157.00
996.46	3183.00
996.88	3171.00
997.30	3168.00
997.71	3207.00
998.13	3201.00
998.55	3178.00
998.97	3205.00
999.39	3197.00
999.81	3177.00
1000.23	3197.00
1000.65	3198.00
1001.07	3158.00
1001.49	3167.00
1001.90	3167.00
1002.32	3191.00
1002.74	3138.00
1003.16	3147.00
1003.58	3159.00
1004.00	3140.00
1004.42	3108.00
1004.83	3145.00
1005.25	3132.00
1005.67	3151.00
1006.09	3144.00
1006.51	3139.00
1006.92	3163.00
1007.34	3150.00
1007.76	3134.00
1008.18	3146.00
1008.60	3143.00
1009.02	3161.00
1009.43	3159.00
1009.85	3127.00
1010.27	3167.00
1010.69	3149.00
1011.10	3140.00
1011.52	3109.00
1011.94	3111.00
1012.36	3112.00
1012.78	3086.00
1013.19	3106.00
1013.61	3087.00
1014.03	3080.00
1014.45	3104.00
1014.86	3072.00
1015.28	3097.00
1015.70	3085.00
1016.12	3094.00
1016.53	3064.00
1016.95	3041.00
1017.37	3056.00
1017.78	3022.00
1018.20	3055.00
1018.62	3036.00
1019.03	3027.00
1019.45	3032.00
1019.87	3011.00
1020.29	3044.00
1020.70	2998.00
1021.12	3025.00
1021.54	3049.00
1021.95	2999.00
1022.37	3033.00
1022.79	2999.00
1023.20	3015.00
1023.62	3016.00
1024.04	2994.00
1024.45	3004.00
1024.87	3001.00
1025.28	2993.00
1025.70	2971.00
1026.12	2976.00
1026.53	2960.00
1026.95	2981.00
1027.37	2963.00
1027.78	2977.00
1028.20	2963.00
1028.61	2973.00
1029.03	2962.00
1029.45	2939.00
1029.86	2935.00
1030.28	2942.00
1030.69	2940.00
1031.11	2899.00
1031.53	2896.00
1031.94	2926.00
1032.36	2916.00
1032.77	2919.00
1033.19	2923.00
1033.60	2919.00
1034.02	2899.00
1034.43	2902.00
1034.85	2905.00
1035.27	2890.00
1035.68	2896.00
1036.10	2897.00
1036.51	2880.00
1036.93	2890.00
1037.34	2866.00
1037.76	2878.00
1038.17	2889.00
1038.59	2865.00
1039.00	2858.00
1039.42	2863.00
1039.83	2875.00
1040.25	2854.00
1040.66	2851.00
1041.08	2859.00
1041.49	2871.00
1041.91	2828.00
1042.32	2867.00
1042.73	2843.00
1043.15	2836.00
1043.56	2827.00
1043.98	2833.00
1044.39	2825.00
1044.81	2819.00
1045.22	2807.00
1045.64	2815.00
1046.05	2809.00
1046.46	2836.00
1046.88	2786.00
1047.29	2804.00
1047.71	2803.00
1048.12	2813.00
1048.53	2796.00
1048.95	2782.00
1049.36	2794.00
1049.78	2782.00
1050.19	2783.00
1050.60	2794.00
1051.02	2785.00
1051.43	2786.00
1051.85	2777.00
1052.26	2774.00
1052.67	2776.00
1053.09	2769.00
1053.50	2762.00
1053.91	2770.00
1054.33	2764.00
1054.74	2761.00
1055.15	2767.00
1055.57	2748.00
1055.98	2759.00
1056.39	2753.00
1056.81	2748.00
1057.22	2725.00
1057.63	2749.00
1058.05	2727.00
1058.46	2740.00
1058.87	2733.00
1059.28	2739.00
1059.70	2709.00
1060.11	2738.00
1060.52	2721.00
1060.94	2717.00
1061.35	2727.00
1061.76	2722.00
1062.17	2720.00
1062.59	2715.00
1063.00	2715.00
1063.41	2711.00
1063.82	2709.00
1064.24	2706.00
1064.65	2698.00
1065.06	2693.00
1065.47	2714.00
1065.89	2699.00
1066.30	2687.00
1066.71	2697.00
1067.12	2675.00
1067.53	2679.00
1067.95	2698.00
1068.36	2690.00
1068.77	2697.00
1069.18	2682.00
1069.59	2675.00
1070.00	2697.00
1070.42	2679.00
1070.83	2690.00
1071.24	2678.00
1071.65	2692.00
1072.06	2675.00
1072.47	2665.00
1072.89	2672.00
1073.30	2659.00
1073.71	2678.00
1074.12	2666.00
1074.53	2657.00
1074.94	2664.00
1075.35	2659.00
1075.77	2656.00
1076.18	2670.00
1076.59	2667.00
1077.00	2665.00
1077.41	2652.00
1077.82	2650.00
1078.23	2649.00
1078.64	2655.00
1079.05	2648.00
1079.46	2646.00
1079.87	2642.00
1080.29	2646.00
1080.70	2651.00
1081.11	2645.00
1081.52	2636.00
1081.93	2649.00
1082.34	2635.00
1082.75	2634.00
1083.16	2639.00
1083.57	2644.00
1083.98	2643.00
1084.39	2634.00
1084.80	2633.00
1085.21	2628.00
1085.62	2630.00
1086.03	2640.00
1086.44	2633.00
1086.85	2630.00
1087.26	2637.00
1087.67	2636.00
1088.08	2631.00
1088.49	2636.00
1088.90	2624.00
1089.31	2634.00
1089.72	2629.00
1090.13	2625.00
1090.54	2614.00
1090.95	2618.00
1091.36	2624.00
1091.77	2620.00
1092.18	2613.00
1092.59	2615.00
1093.00	2623.00
1093.40	2612.00
1093.81	2620.00
1094.22	2612.00
1094.63	2606.00
1095.04	2612.00
1095.45	2604.00
1095.86	2607.00
1096.27	2609.00
1096.68	2600.00
1097.09	2602.00
1097.50	2604.00
1097.90	2605.00
1098.31	2598.00
1098.72	2601.00
1099.13	2602.00
1099.54	2595.00
1099.95	2591.00
1100.36	2598.00
1100.76	2600.00
1101.17	2594.00
1101.58	2593.00
1101.99	2603.00
1102.40	2599.00
1102.81	2594.00
1103.22	2592.00
1103.62	2589.00
1104.03	2600.00
1104.44	2595.00
1104.85	2589.00
1105.26	2588.00
1105.66	2583.00
1106.07	2585.00
1106.48	2589.00
1106.89	2578.00
1107.30	2587.00
1107.70	2589.00
1108.11	2582.00
1108.52	2584.00
1108.93	2586.00
1109.33	2587.00
1109.74	2582.00
1110.15	2587.00
1110.56	2585.00
1110.96	2584.00
1111.37	2587.00
1111.78	2583.00
1112.19	2572.00
1112.59	2586.00
1113.00	2582.00
1113.41	2580.00
1113.81	2584.00
1114.22	2583.00
1114.63	2558.00
1115.03	2557.00
1115.44	2557.00
1115.85	2560.00
>>>>>End Processed Spectral Data<<<<<
