SpectraSuite Data File
++++++++++++++++++++++++++++++++++++
Date: Thu Aug 05 10:45:31 EEST 2021
User: CanSEE
Dark Spectrum Present: No
Reference Spectrum Present: No
Number of Sampled Component Spectra: 1
Spectrometers: MAYP112785
Integration Time (usec): 10000 (MAYP112785)
Spectra Averaged: 1 (MAYP112785)
Boxcar Smoothing: 0 (MAYP112785)
Correct for Electrical Dark: No (MAYP112785)
Strobe/Lamp Enabled: No (MAYP112785)
Correct for Detector Non-linearity: No (MAYP112785)
Correct for Stray Light: No (MAYP112785)
Number of Pixels in Processed Spectrum: 2068
>>>>>Begin Processed Spectral Data<<<<<
198.35	3485.00
198.82	2486.00
199.30	2594.00
199.77	2577.00
200.24	2605.00
200.71	2601.00
201.18	2605.00
201.65	2615.00
202.13	2608.00
202.60	2609.00
203.07	2611.00
203.54	2613.00
204.01	2605.00
204.48	2610.00
204.96	2601.00
205.43	2604.00
205.90	2604.00
206.37	2608.00
206.84	2608.00
207.31	2599.00
207.78	2609.00
208.26	2601.00
208.73	2615.00
209.20	2608.00
209.67	2605.00
210.14	2605.00
210.61	2605.00
211.08	2605.00
211.56	2610.00
212.03	2604.00
212.50	2605.00
212.97	2605.00
213.44	2597.00
213.91	2612.00
214.38	2605.00
214.85	2602.00
215.33	2605.00
215.80	2603.00
216.27	2606.00
216.74	2603.00
217.21	2609.00
217.68	2608.00
218.15	2610.00
218.62	2612.00
219.09	2597.00
219.57	2608.00
220.04	2603.00
220.51	2606.00
220.98	2611.00
221.45	2608.00
221.92	2606.00
222.39	2605.00
222.86	2599.00
223.33	2602.00
223.80	2606.00
224.27	2600.00
224.74	2606.00
225.22	2604.00
225.69	2610.00
226.16	2614.00
226.63	2607.00
227.10	2605.00
227.57	2614.00
228.04	2608.00
228.51	2608.00
228.98	2602.00
229.45	2604.00
229.92	2601.00
230.39	2599.00
230.86	2605.00
231.33	2612.00
231.80	2605.00
232.27	2608.00
232.75	2606.00
233.22	2604.00
233.69	2601.00
234.16	2613.00
234.63	2602.00
235.10	2602.00
235.57	2603.00
236.04	2609.00
236.51	2609.00
236.98	2611.00
237.45	2607.00
237.92	2606.00
238.39	2601.00
238.86	2614.00
239.33	2667.00
239.80	2608.00
240.27	2610.00
240.74	2607.00
241.21	2600.00
241.68	2606.00
242.15	2607.00
242.62	2602.00
243.09	2606.00
243.56	2607.00
244.03	2617.00
244.50	2600.00
244.97	2607.00
245.44	2620.00
245.91	2609.00
246.38	2607.00
246.85	2607.00
247.32	2604.00
247.79	2611.00
248.26	2610.00
248.73	2600.00
249.20	2608.00
249.67	2604.00
250.14	2616.00
250.61	2601.00
251.08	2609.00
251.55	2604.00
252.02	2605.00
252.49	2600.00
252.96	2612.00
253.43	2607.00
253.90	2615.00
254.37	2599.00
254.84	2603.00
255.31	2609.00
255.77	2612.00
256.24	2606.00
256.71	2608.00
257.18	2615.00
257.65	2607.00
258.12	2615.00
258.59	2610.00
259.06	2606.00
259.53	2608.00
260.00	2610.00
260.47	2604.00
260.94	2620.00
261.41	2610.00
261.88	2608.00
262.35	2608.00
262.81	2605.00
263.28	2604.00
263.75	2609.00
264.22	2607.00
264.69	2612.00
265.16	2614.00
265.63	2617.00
266.10	2612.00
266.57	2602.00
267.04	2617.00
267.51	2615.00
267.97	2602.00
268.44	2608.00
268.91	2608.00
269.38	2611.00
269.85	2598.00
270.32	2601.00
270.79	2612.00
271.26	2611.00
271.73	2610.00
272.19	2609.00
272.66	2610.00
273.13	2611.00
273.60	2605.00
274.07	2613.00
274.54	2610.00
275.01	2600.00
275.48	2606.00
275.94	2598.00
276.41	2616.00
276.88	2602.00
277.35	2612.00
277.82	2607.00
278.29	2613.00
278.76	2606.00
279.22	2605.00
279.69	2602.00
280.16	2609.00
280.63	2607.00
281.10	2614.00
281.57	2607.00
282.04	2606.00
282.50	2608.00
282.97	2613.00
283.44	2606.00
283.91	2612.00
284.38	2608.00
284.85	2607.00
285.31	2606.00
285.78	2613.00
286.25	2613.00
286.72	2609.00
287.19	2602.00
287.65	2606.00
288.12	2607.00
288.59	2609.00
289.06	2608.00
289.53	2604.00
289.99	2601.00
290.46	2598.00
290.93	2615.00
291.40	2605.00
291.87	2611.00
292.33	2602.00
292.80	2603.00
293.27	2611.00
293.74	2609.00
294.21	2613.00
294.67	2607.00
295.14	2604.00
295.61	2609.00
296.08	2609.00
296.54	2607.00
297.01	2608.00
297.48	2612.00
297.95	2605.00
298.42	2609.00
298.88	2604.00
299.35	2607.00
299.82	2604.00
300.29	2609.00
300.75	2611.00
301.22	2606.00
301.69	2612.00
302.16	2611.00
302.62	2619.00
303.09	2604.00
303.56	2605.00
304.03	2619.00
304.49	2608.00
304.96	2607.00
305.43	2611.00
305.90	2619.00
306.36	2613.00
306.83	2618.00
307.30	2617.00
307.76	2619.00
308.23	2628.00
308.70	2623.00
309.17	2621.00
309.63	2622.00
310.10	2623.00
310.57	2639.00
311.03	2643.00
311.50	2649.00
311.97	2646.00
312.44	2649.00
312.90	2648.00
313.37	2654.00
313.84	2653.00
314.30	2661.00
314.77	2665.00
315.24	2661.00
315.70	2681.00
316.17	2659.00
316.64	2678.00
317.10	2682.00
317.57	2699.00
318.04	2698.00
318.50	2684.00
318.97	2691.00
319.44	2715.00
319.90	2704.00
320.37	2726.00
320.84	2713.00
321.30	2725.00
321.77	2715.00
322.24	2709.00
322.70	2729.00
323.17	2731.00
323.64	2722.00
324.10	2742.00
324.57	2759.00
325.04	2750.00
325.50	2769.00
325.97	2791.00
326.44	2812.00
326.90	2811.00
327.37	2818.00
327.84	2808.00
328.30	2825.00
328.77	2819.00
329.23	2818.00
329.70	2849.00
330.17	2858.00
330.63	2856.00
331.10	2803.00
331.56	2830.00
332.03	2838.00
332.50	2832.00
332.96	2828.00
333.43	2832.00
333.90	2816.00
334.36	2824.00
334.83	2845.00
335.29	2843.00
335.76	2841.00
336.22	2821.00
336.69	2815.00
337.16	2815.00
337.62	2809.00
338.09	2830.00
338.55	2843.00
339.02	2848.00
339.49	2850.00
339.95	2891.00
340.42	2889.00
340.88	2870.00
341.35	2879.00
341.81	2871.00
342.28	2905.00
342.75	2897.00
343.21	2887.00
343.68	2883.00
344.14	2871.00
344.61	2838.00
345.07	2859.00
345.54	2875.00
346.00	2898.00
346.47	2888.00
346.93	2906.00
347.40	2910.00
347.87	2894.00
348.33	2915.00
348.80	2926.00
349.26	2899.00
349.73	2923.00
350.19	2930.00
350.66	2963.00
351.12	2955.00
351.59	2936.00
352.05	2945.00
352.52	2950.00
352.98	2940.00
353.45	2953.00
353.91	2984.00
354.38	3009.00
354.84	2975.00
355.31	2977.00
355.77	2971.00
356.24	2955.00
356.70	2925.00
357.17	2893.00
357.63	2915.00
358.10	2925.00
358.56	2883.00
359.03	2913.00
359.49	2946.00
359.96	2995.00
360.42	2974.00
360.89	2945.00
361.35	2963.00
361.82	2958.00
362.28	2975.00
362.75	2987.00
363.21	3009.00
363.67	2997.00
364.14	3013.00
364.60	3048.00
365.07	3013.00
365.53	3031.00
366.00	3080.00
366.46	3100.00
366.93	3079.00
367.39	3095.00
367.86	3080.00
368.32	3075.00
368.78	3061.00
369.25	3105.00
369.71	3117.00
370.18	3117.00
370.64	3084.00
371.11	3098.00
371.57	3074.00
372.03	3095.00
372.50	3014.00
372.96	3055.00
373.43	3019.00
373.89	2987.00
374.35	3038.00
374.82	3031.00
375.28	3061.00
375.75	3098.00
376.21	3152.00
376.67	3131.00
377.14	3134.00
377.60	3164.00
378.07	3223.00
378.53	3219.00
378.99	3179.00
379.46	3135.00
379.92	3122.00
380.39	3124.00
380.85	3192.00
381.31	3158.00
381.78	3117.00
382.24	3055.00
382.70	3001.00
383.17	2995.00
383.63	2990.00
384.09	3048.00
384.56	3084.00
385.02	3142.00
385.48	3150.00
385.95	3146.00
386.41	3129.00
386.88	3162.00
387.34	3169.00
387.80	3144.00
388.27	3210.00
388.73	3201.00
389.19	3219.00
389.66	3265.00
390.12	3314.00
390.58	3330.00
391.05	3334.00
391.51	3337.00
391.97	3281.00
392.43	3230.00
392.90	3144.00
393.36	3076.00
393.82	3053.00
394.29	3197.00
394.75	3250.00
395.21	3350.00
395.68	3383.00
396.14	3312.00
396.60	3234.00
397.07	3167.00
397.53	3256.00
397.99	3406.00
398.45	3561.00
398.92	3608.00
399.38	3658.00
399.84	3681.00
400.31	3721.00
400.77	3761.00
401.23	3746.00
401.69	3782.00
402.16	3799.00
402.62	3823.00
403.08	3791.00
403.54	3775.00
404.01	3775.00
404.47	3788.00
404.93	3763.00
405.39	3764.00
405.86	3783.00
406.32	3767.00
406.78	3756.00
407.24	3808.00
407.71	3789.00
408.17	3815.00
408.63	3843.00
409.09	3911.00
409.56	3872.00
410.02	3836.00
410.48	3812.00
410.94	3864.00
411.40	3926.00
411.87	3998.00
412.33	3976.00
412.79	3985.00
413.25	3963.00
413.71	3956.00
414.18	3972.00
414.64	4011.00
415.10	4013.00
415.56	4022.00
416.02	4002.00
416.49	4031.00
416.95	4019.00
417.41	4018.00
417.87	3956.00
418.33	3993.00
418.80	3995.00
419.26	4020.00
419.72	4021.00
420.18	4018.00
420.64	4065.00
421.10	4085.00
421.57	4066.00
422.03	4091.00
422.49	4026.00
422.95	3982.00
423.41	3992.00
423.87	4094.00
424.34	4033.00
424.80	4113.00
425.26	4080.00
425.72	4089.00
426.18	4061.00
426.64	4070.00
427.10	4051.00
427.57	3994.00
428.03	4009.00
428.49	4037.00
428.95	3986.00
429.41	3911.00
429.87	3828.00
430.33	3855.00
430.79	3832.00
431.26	3900.00
431.72	4020.00
432.18	4220.00
432.64	4252.00
433.10	4141.00
433.56	4232.00
434.02	4172.00
434.48	4156.00
434.94	4243.00
435.40	4327.00
435.87	4350.00
436.33	4297.00
436.79	4342.00
437.25	4317.00
437.71	4303.00
438.17	4294.00
438.63	4263.00
439.09	4194.00
439.55	4288.00
440.01	4387.00
440.47	4395.00
440.93	4418.00
441.39	4447.00
441.85	4511.00
442.32	4510.00
442.78	4566.00
443.24	4532.00
443.70	4559.00
444.16	4569.00
444.62	4585.00
445.08	4604.00
445.54	4570.00
446.00	4575.00
446.46	4538.00
446.92	4626.00
447.38	4636.00
447.84	4697.00
448.30	4709.00
448.76	4741.00
449.22	4753.00
449.68	4815.00
450.14	4795.00
450.60	4822.00
451.06	4867.00
451.52	4829.00
451.98	4813.00
452.44	4748.00
452.90	4741.00
453.36	4726.00
453.82	4712.00
454.28	4785.00
454.74	4849.00
455.20	4800.00
455.66	4806.00
456.12	4846.00
456.58	4963.00
457.04	4911.00
457.50	4966.00
457.96	4926.00
458.42	4904.00
458.88	4868.00
459.34	4906.00
459.80	4879.00
460.26	4924.00
460.72	4971.00
461.18	5009.00
461.64	5026.00
462.10	5076.00
462.55	5020.00
463.01	5091.00
463.47	5031.00
463.93	4969.00
464.39	5007.00
464.85	5022.00
465.31	4964.00
465.77	4968.00
466.23	4967.00
466.69	4972.00
467.15	4909.00
467.61	4990.00
468.07	5058.00
468.52	5037.00
468.98	4969.00
469.44	5026.00
469.90	4974.00
470.36	4994.00
470.82	5034.00
471.28	5025.00
471.74	5081.00
472.20	5117.00
472.66	5141.00
473.11	5120.00
473.57	5108.00
474.03	5089.00
474.49	5155.00
474.95	5120.00
475.41	5114.00
475.87	5122.00
476.33	5122.00
476.78	5163.00
477.24	5200.00
477.70	5188.00
478.16	5216.00
478.62	5245.00
479.08	5239.00
479.54	5256.00
479.99	5221.00
480.45	5237.00
480.91	5311.00
481.37	5293.00
481.83	5306.00
482.29	5268.00
482.74	5348.00
483.20	5245.00
483.66	5247.00
484.12	5216.00
484.58	5175.00
485.04	5142.00
485.49	4986.00
485.95	4959.00
486.41	4901.00
486.87	4957.00
487.33	5038.00
487.78	5089.00
488.24	5156.00
488.70	5242.00
489.16	5201.00
489.62	5232.00
490.07	5340.00
490.53	5263.00
490.99	5244.00
491.45	5233.00
491.90	5205.00
492.36	5265.00
492.82	5233.00
493.28	5304.00
493.74	5319.00
494.19	5338.00
494.65	5313.00
495.11	5405.00
495.57	5379.00
496.02	5321.00
496.48	5382.00
496.94	5354.00
497.40	5309.00
497.85	5330.00
498.31	5348.00
498.77	5353.00
499.23	5354.00
499.68	5326.00
500.14	5274.00
500.60	5240.00
501.06	5229.00
501.51	5207.00
501.97	5247.00
502.43	5250.00
502.88	5357.00
503.34	5234.00
503.80	5312.00
504.26	5329.00
504.71	5321.00
505.17	5343.00
505.63	5419.00
506.08	5421.00
506.54	5414.00
507.00	5423.00
507.45	5375.00
507.91	5369.00
508.37	5417.00
508.82	5411.00
509.28	5433.00
509.74	5428.00
510.19	5428.00
510.65	5434.00
511.11	5438.00
511.56	5438.00
512.02	5492.00
512.48	5500.00
512.93	5406.00
513.39	5399.00
513.85	5410.00
514.30	5331.00
514.76	5414.00
515.22	5466.00
515.67	5437.00
516.13	5317.00
516.59	5234.00
517.04	5239.00
517.50	5119.00
517.95	5180.00
518.41	5232.00
518.87	5315.00
519.32	5320.00
519.78	5444.00
520.24	5485.00
520.69	5461.00
521.15	5469.00
521.60	5523.00
522.06	5373.00
522.52	5541.00
522.97	5498.00
523.43	5482.00
523.88	5550.00
524.34	5613.00
524.80	5677.00
525.25	5548.00
525.71	5465.00
526.16	5511.00
526.62	5388.00
527.07	5399.00
527.53	5458.00
527.99	5513.00
528.44	5632.00
528.90	5636.00
529.35	5693.00
529.81	5685.00
530.26	5629.00
530.72	5643.00
531.17	5748.00
531.63	5672.00
532.09	5568.00
532.54	5577.00
533.00	5526.00
533.45	5566.00
533.91	5642.00
534.36	5664.00
534.82	5651.00
535.27	5737.00
535.73	5765.00
536.18	5686.00
536.64	5697.00
537.09	5664.00
537.55	5706.00
538.00	5720.00
538.46	5747.00
538.91	5668.00
539.37	5714.00
539.82	5613.00
540.28	5553.00
540.73	5574.00
541.19	5577.00
541.64	5688.00
542.10	5658.00
542.55	5639.00
543.01	5649.00
543.46	5694.00
543.92	5638.00
544.37	5707.00
544.83	5772.00
545.28	5711.00
545.74	5730.00
546.19	5745.00
546.64	5716.00
547.10	5710.00
547.55	5718.00
548.01	5694.00
548.46	5698.00
548.92	5761.00
549.37	5676.00
549.83	5794.00
550.28	5756.00
550.73	5748.00
551.19	5769.00
551.64	5863.00
552.10	5760.00
552.55	5734.00
553.00	5754.00
553.46	5801.00
553.91	5764.00
554.37	5885.00
554.82	5814.00
555.28	5812.00
555.73	5794.00
556.18	5796.00
556.64	5728.00
557.09	5717.00
557.54	5777.00
558.00	5728.00
558.45	5645.00
558.91	5707.00
559.36	5586.00
559.81	5697.00
560.27	5708.00
560.72	5802.00
561.17	5726.00
561.63	5754.00
562.08	5786.00
562.54	5774.00
562.99	5805.00
563.44	5796.00
563.90	5762.00
564.35	5799.00
564.80	5784.00
565.26	5758.00
565.71	5666.00
566.16	5727.00
566.62	5704.00
567.07	5819.00
567.52	5749.00
567.98	5724.00
568.43	5736.00
568.88	5729.00
569.34	5676.00
569.79	5751.00
570.24	5648.00
570.69	5700.00
571.15	5687.00
571.60	5734.00
572.05	5727.00
572.51	5824.00
572.96	5801.00
573.41	5864.00
573.86	5857.00
574.32	5767.00
574.77	5810.00
575.22	5799.00
575.68	5783.00
576.13	5745.00
576.58	5765.00
577.03	5802.00
577.49	5821.00
577.94	5761.00
578.39	5729.00
578.84	5798.00
579.30	5829.00
579.75	5807.00
580.20	5832.00
580.65	5875.00
581.11	5883.00
581.56	5844.00
582.01	5901.00
582.46	5846.00
582.92	5852.00
583.37	5922.00
583.82	5897.00
584.27	5890.00
584.72	5866.00
585.18	5881.00
585.63	5893.00
586.08	5828.00
586.53	5844.00
586.98	5819.00
587.44	5814.00
587.89	5844.00
588.34	5742.00
588.79	5586.00
589.24	5500.00
589.70	5497.00
590.15	5657.00
590.60	5651.00
591.05	5739.00
591.50	5809.00
591.96	5755.00
592.41	5791.00
592.86	5745.00
593.31	5728.00
593.76	5781.00
594.21	5752.00
594.66	5730.00
595.12	5699.00
595.57	5746.00
596.02	5809.00
596.47	5859.00
596.92	5793.00
597.37	5806.00
597.82	5816.00
598.28	5768.00
598.73	5764.00
599.18	5792.00
599.63	5760.00
600.08	5827.00
600.53	5777.00
600.98	5745.00
601.43	5725.00
601.88	5787.00
602.34	5722.00
602.79	5834.00
603.24	5880.00
603.69	5861.00
604.14	5871.00
604.59	5914.00
605.04	5852.00
605.49	5855.00
605.94	5909.00
606.39	5884.00
606.84	5900.00
607.30	5879.00
607.75	5876.00
608.20	5887.00
608.65	5845.00
609.10	5877.00
609.55	5930.00
610.00	5910.00
610.45	5835.00
610.90	5881.00
611.35	5837.00
611.80	5927.00
612.25	5842.00
612.70	5791.00
613.15	5816.00
613.60	5850.00
614.05	5798.00
614.50	5869.00
614.95	5807.00
615.40	5823.00
615.85	5830.00
616.30	5780.00
616.75	5716.00
617.20	5755.00
617.65	5849.00
618.10	5859.00
618.55	5918.00
619.00	5934.00
619.45	5822.00
619.90	5887.00
620.35	5875.00
620.80	5900.00
621.25	5915.00
621.70	5845.00
622.15	5817.00
622.60	5840.00
623.05	5874.00
623.50	5812.00
623.95	5740.00
624.40	5822.00
624.85	5781.00
625.30	5804.00
625.75	5852.00
626.20	5759.00
626.65	5833.00
627.10	5819.00
627.55	5721.00
627.99	5660.00
628.44	5700.00
628.89	5764.00
629.34	5752.00
629.79	5725.00
630.24	5723.00
630.69	5755.00
631.14	5760.00
631.59	5794.00
632.04	5785.00
632.49	5793.00
632.94	5878.00
633.38	5874.00
633.83	5827.00
634.28	5856.00
634.73	5857.00
635.18	5877.00
635.63	5865.00
636.08	5864.00
636.53	5914.00
636.97	5884.00
637.42	5968.00
637.87	5981.00
638.32	5906.00
638.77	5968.00
639.22	5957.00
639.67	5896.00
640.11	5891.00
640.56	5917.00
641.01	5856.00
641.46	5833.00
641.91	5878.00
642.36	5973.00
642.81	5971.00
643.25	5886.00
643.70	5933.00
644.15	5910.00
644.60	5911.00
645.05	5965.00
645.49	5944.00
645.94	5813.00
646.39	5855.00
646.84	5796.00
647.29	5743.00
647.73	5796.00
648.18	5769.00
648.63	5850.00
649.08	5799.00
649.53	5683.00
649.97	5740.00
650.42	5805.00
650.87	5884.00
651.32	5848.00
651.77	5828.00
652.21	5821.00
652.66	5812.00
653.11	5841.00
653.56	5847.00
654.00	5849.00
654.45	5846.00
654.90	5740.00
655.35	5648.00
655.79	5616.00
656.24	5346.00
656.69	5427.00
657.14	5515.00
657.58	5633.00
658.03	5767.00
658.48	5791.00
658.92	5844.00
659.37	5804.00
659.82	5855.00
660.27	5884.00
660.71	5949.00
661.16	5916.00
661.61	5875.00
662.05	5875.00
662.50	5936.00
662.95	5879.00
663.39	5879.00
663.84	5893.00
664.29	5811.00
664.74	5880.00
665.18	5924.00
665.63	5902.00
666.08	5882.00
666.52	5906.00
666.97	5849.00
667.42	5860.00
667.86	5892.00
668.31	5934.00
668.76	5925.00
669.20	5896.00
669.65	5940.00
670.09	5931.00
670.54	5867.00
670.99	5839.00
671.43	5851.00
671.88	5808.00
672.33	5822.00
672.77	5834.00
673.22	5829.00
673.66	5871.00
674.11	5863.00
674.56	5806.00
675.00	5856.00
675.45	5847.00
675.90	5840.00
676.34	5887.00
676.79	5836.00
677.23	5860.00
677.68	5820.00
678.12	5812.00
678.57	5851.00
679.02	5819.00
679.46	5853.00
679.91	5828.00
680.35	5892.00
680.80	5815.00
681.25	5814.00
681.69	5802.00
682.14	5803.00
682.58	5844.00
683.03	5781.00
683.47	5802.00
683.92	5774.00
684.36	5727.00
684.81	5726.00
685.25	5792.00
685.70	5716.00
686.15	5698.00
686.59	5480.00
687.04	5042.00
687.48	4818.00
687.93	4945.00
688.37	5203.00
688.82	5265.00
689.26	5245.00
689.71	5278.00
690.15	5211.00
690.60	5330.00
691.04	5344.00
691.49	5435.00
691.93	5468.00
692.38	5455.00
692.82	5479.00
693.27	5506.00
693.71	5495.00
694.16	5446.00
694.60	5441.00
695.04	5424.00
695.49	5464.00
695.93	5474.00
696.38	5538.00
696.82	5578.00
697.27	5624.00
697.71	5592.00
698.16	5539.00
698.60	5610.00
699.04	5496.00
699.49	5499.00
699.93	5484.00
700.38	5496.00
700.82	5502.00
701.27	5524.00
701.71	5429.00
702.15	5498.00
702.60	5491.00
703.04	5425.00
703.49	5561.00
703.93	5542.00
704.37	5547.00
704.82	5542.00
705.26	5545.00
705.71	5538.00
706.15	5569.00
706.59	5532.00
707.04	5514.00
707.48	5584.00
707.93	5620.00
708.37	5513.00
708.81	5525.00
709.26	5479.00
709.70	5607.00
710.14	5591.00
710.59	5551.00
711.03	5569.00
711.47	5530.00
711.92	5518.00
712.36	5499.00
712.80	5486.00
713.25	5559.00
713.69	5563.00
714.13	5530.00
714.58	5457.00
715.02	5437.00
715.46	5439.00
715.91	5395.00
716.35	5350.00
716.79	5176.00
717.24	5009.00
717.68	4915.00
718.12	4877.00
718.57	4747.00
719.01	4693.00
719.45	4730.00
719.89	4677.00
720.34	4777.00
720.78	4725.00
721.22	4979.00
721.66	5123.00
722.11	5191.00
722.55	5170.00
722.99	5126.00
723.44	4902.00
723.88	4855.00
724.32	4825.00
724.76	4866.00
725.21	4849.00
725.65	4873.00
726.09	4881.00
726.53	4897.00
726.97	4934.00
727.42	4898.00
727.86	4826.00
728.30	4880.00
728.74	4926.00
729.19	4866.00
729.63	4887.00
730.07	4934.00
730.51	4983.00
730.95	4925.00
731.40	4966.00
731.84	5053.00
732.28	5031.00
732.72	5122.00
733.16	5120.00
733.61	5160.00
734.05	5264.00
734.49	5232.00
734.93	5273.00
735.37	5246.00
735.81	5256.00
736.26	5191.00
736.70	5198.00
737.14	5243.00
737.58	5173.00
738.02	5212.00
738.46	5236.00
738.90	5169.00
739.35	5191.00
739.79	5223.00
740.23	5228.00
740.67	5245.00
741.11	5202.00
741.55	5218.00
741.99	5198.00
742.44	5150.00
742.88	5171.00
743.32	5274.00
743.76	5240.00
744.20	5260.00
744.64	5232.00
745.08	5259.00
745.52	5258.00
745.96	5272.00
746.40	5288.00
746.84	5271.00
747.29	5327.00
747.73	5258.00
748.17	5286.00
748.61	5297.00
749.05	5252.00
749.49	5256.00
749.93	5156.00
750.37	5305.00
750.81	5266.00
751.25	5260.00
751.69	5261.00
752.13	5299.00
752.57	5271.00
753.01	5297.00
753.45	5216.00
753.89	5248.00
754.33	5273.00
754.77	5238.00
755.21	5288.00
755.65	5276.00
756.09	5256.00
756.53	5223.00
756.97	5208.00
757.41	5244.00
757.85	5200.00
758.29	5210.00
758.73	5148.00
759.17	4953.00
759.61	4371.00
760.05	3633.00
760.49	3162.00
760.93	3072.00
761.37	3245.00
761.81	3708.00
762.25	3947.00
762.69	3811.00
763.13	3644.00
763.57	3604.00
764.01	3693.00
764.45	3874.00
764.89	4010.00
765.33	4199.00
765.77	4406.00
766.21	4468.00
766.65	4624.00
767.09	4764.00
767.53	4871.00
767.96	4952.00
768.40	4976.00
768.84	5073.00
769.28	5021.00
769.72	5128.00
770.16	5043.00
770.60	5094.00
771.04	5131.00
771.48	5156.00
771.92	5135.00
772.35	5094.00
772.79	5134.00
773.23	5149.00
773.67	5192.00
774.11	5080.00
774.55	5110.00
774.99	5036.00
775.43	5088.00
775.86	5142.00
776.30	5087.00
776.74	5131.00
777.18	5138.00
777.62	5064.00
778.06	5082.00
778.50	5062.00
778.93	5063.00
779.37	5034.00
779.81	5097.00
780.25	5008.00
780.69	5068.00
781.12	4995.00
781.56	5048.00
782.00	5111.00
782.44	5092.00
782.88	5055.00
783.32	5050.00
783.75	5050.00
784.19	5046.00
784.63	5040.00
785.07	4995.00
785.50	5005.00
785.94	4974.00
786.38	4968.00
786.82	4958.00
787.26	4930.00
787.69	4918.00
788.13	4942.00
788.57	4964.00
789.01	4914.00
789.44	4917.00
789.88	4865.00
790.32	4836.00
790.76	4813.00
791.19	4803.00
791.63	4847.00
792.07	4799.00
792.51	4816.00
792.94	4827.00
793.38	4754.00
793.82	4767.00
794.25	4798.00
794.69	4818.00
795.13	4831.00
795.56	4907.00
796.00	4811.00
796.44	4751.00
796.88	4734.00
797.31	4765.00
797.75	4771.00
798.19	4770.00
798.62	4774.00
799.06	4736.00
799.50	4774.00
799.93	4735.00
800.37	4712.00
800.81	4776.00
801.24	4726.00
801.68	4752.00
802.12	4746.00
802.55	4730.00
802.99	4694.00
803.43	4728.00
803.86	4653.00
804.30	4713.00
804.73	4594.00
805.17	4677.00
805.61	4722.00
806.04	4724.00
806.48	4764.00
806.92	4681.00
807.35	4700.00
807.79	4686.00
808.22	4643.00
808.66	4618.00
809.10	4611.00
809.53	4587.00
809.97	4580.00
810.40	4555.00
810.84	4587.00
811.27	4557.00
811.71	4562.00
812.15	4547.00
812.58	4505.00
813.02	4423.00
813.45	4328.00
813.89	4364.00
814.32	4317.00
814.76	4215.00
815.19	4204.00
815.63	4191.00
816.07	4125.00
816.50	4036.00
816.94	4104.00
817.37	4193.00
817.81	4113.00
818.24	4100.00
818.68	4189.00
819.11	4198.00
819.55	4193.00
819.98	4154.00
820.42	4294.00
820.85	4410.00
821.29	4302.00
821.72	4340.00
822.16	4230.00
822.59	4036.00
823.03	3824.00
823.46	4000.00
823.90	4211.00
824.33	4206.00
824.77	4330.00
825.20	4397.00
825.63	4325.00
826.07	4308.00
826.50	4354.00
826.94	4380.00
827.37	4210.00
827.81	4143.00
828.24	4172.00
828.68	4226.00
829.11	4202.00
829.54	4195.00
829.98	4277.00
830.41	4256.00
830.85	4267.00
831.28	4255.00
831.71	4275.00
832.15	4198.00
832.58	4279.00
833.02	4279.00
833.45	4277.00
833.88	4239.00
834.32	4318.00
834.75	4323.00
835.19	4317.00
835.62	4304.00
836.05	4289.00
836.49	4295.00
836.92	4331.00
837.35	4372.00
837.79	4336.00
838.22	4380.00
838.66	4393.00
839.09	4423.00
839.52	4411.00
839.96	4441.00
840.39	4429.00
840.82	4407.00
841.26	4366.00
841.69	4333.00
842.12	4381.00
842.56	4365.00
842.99	4384.00
843.42	4381.00
843.85	4359.00
844.29	4337.00
844.72	4351.00
845.15	4425.00
845.59	4429.00
846.02	4467.00
846.45	4403.00
846.88	4361.00
847.32	4437.00
847.75	4398.00
848.18	4356.00
848.62	4374.00
849.05	4325.00
849.48	4276.00
849.91	4189.00
850.35	4240.00
850.78	4304.00
851.21	4274.00
851.64	4359.00
852.08	4361.00
852.51	4370.00
852.94	4322.00
853.37	4298.00
853.80	4109.00
854.24	4000.00
854.67	4056.00
855.10	4210.00
855.53	4235.00
855.97	4292.00
856.40	4346.00
856.83	4326.00
857.26	4323.00
857.69	4343.00
858.13	4371.00
858.56	4327.00
858.99	4358.00
859.42	4401.00
859.85	4368.00
860.28	4347.00
860.72	4334.00
861.15	4344.00
861.58	4298.00
862.01	4246.00
862.44	4281.00
862.87	4300.00
863.30	4285.00
863.74	4312.00
864.17	4249.00
864.60	4265.00
865.03	4269.00
865.46	4189.00
865.89	4125.00
866.32	4049.00
866.75	4170.00
867.19	4249.00
867.62	4328.00
868.05	4318.00
868.48	4245.00
868.91	4249.00
869.34	4259.00
869.77	4245.00
870.20	4224.00
870.63	4244.00
871.06	4285.00
871.49	4221.00
871.93	4248.00
872.36	4245.00
872.79	4238.00
873.22	4237.00
873.65	4247.00
874.08	4255.00
874.51	4260.00
874.94	4253.00
875.37	4241.00
875.80	4241.00
876.23	4204.00
876.66	4211.00
877.09	4194.00
877.52	4219.00
877.95	4216.00
878.38	4217.00
878.81	4167.00
879.24	4176.00
879.67	4138.00
880.10	4171.00
880.53	4127.00
880.96	4148.00
881.39	4219.00
881.82	4209.00
882.25	4222.00
882.68	4230.00
883.11	4220.00
883.54	4210.00
883.97	4194.00
884.40	4208.00
884.83	4213.00
885.26	4161.00
885.69	4181.00
886.12	4138.00
886.55	4086.00
886.98	4147.00
887.40	4139.00
887.83	4178.00
888.26	4139.00
888.69	4174.00
889.12	4169.00
889.55	4186.00
889.98	4135.00
890.41	4148.00
890.84	4137.00
891.27	4193.00
891.70	4182.00
892.12	4189.00
892.55	4052.00
892.98	4081.00
893.41	4075.00
893.84	4076.00
894.27	3983.00
894.70	3916.00
895.13	3924.00
895.55	3894.00
895.98	3855.00
896.41	3813.00
896.84	3794.00
897.27	3838.00
897.70	3796.00
898.13	3801.00
898.55	3579.00
898.98	3632.00
899.41	3782.00
899.84	3723.00
900.27	3686.00
900.70	3680.00
901.12	3703.00
901.55	3690.00
901.98	3680.00
902.41	3698.00
902.84	3785.00
903.26	3924.00
903.69	3889.00
904.12	3903.00
904.55	3899.00
904.97	3917.00
905.40	3918.00
905.83	3812.00
906.26	3767.00
906.69	3693.00
907.11	3676.00
907.54	3684.00
907.97	3672.00
908.40	3657.00
908.82	3636.00
909.25	3646.00
909.68	3642.00
910.10	3625.00
910.53	3657.00
910.96	3738.00
911.39	3681.00
911.81	3691.00
912.24	3751.00
912.67	3552.00
913.09	3526.00
913.52	3566.00
913.95	3690.00
914.38	3665.00
914.80	3577.00
915.23	3549.00
915.66	3617.00
916.08	3694.00
916.51	3697.00
916.94	3585.00
917.36	3566.00
917.79	3682.00
918.22	3666.00
918.64	3739.00
919.07	3677.00
919.50	3716.00
919.92	3777.00
920.35	3729.00
920.78	3658.00
921.20	3677.00
921.63	3731.00
922.05	3732.00
922.48	3687.00
922.91	3690.00
923.33	3637.00
923.76	3645.00
924.18	3581.00
924.61	3665.00
925.04	3617.00
925.46	3599.00
925.89	3617.00
926.31	3656.00
926.74	3607.00
927.17	3490.00
927.59	3413.00
928.02	3398.00
928.44	3350.00
928.87	3337.00
929.29	3268.00
929.72	3210.00
930.15	3186.00
930.57	3126.00
931.00	3072.00
931.42	3020.00
931.85	2957.00
932.27	2974.00
932.70	2937.00
933.12	2881.00
933.55	2841.00
933.97	2853.00
934.40	2954.00
934.82	2919.00
935.25	2860.00
935.67	2918.00
936.10	2857.00
936.52	2831.00
936.95	2845.00
937.37	2837.00
937.80	2880.00
938.22	2954.00
938.65	3041.00
939.07	3047.00
939.50	2973.00
939.92	2940.00
940.35	2927.00
940.77	2919.00
941.19	2926.00
941.62	2920.00
942.04	2875.00
942.47	2842.00
942.89	2931.00
943.32	2855.00
943.74	2804.00
944.16	2894.00
944.59	2901.00
945.01	2869.00
945.44	2854.00
945.86	2873.00
946.29	2876.00
946.71	2907.00
947.13	2892.00
947.56	2870.00
947.98	2932.00
948.40	2967.00
948.83	2894.00
949.25	2839.00
949.68	2904.00
950.10	3012.00
950.52	3038.00
950.95	2978.00
951.37	2887.00
951.79	2907.00
952.22	2927.00
952.64	2993.00
953.06	2994.00
953.49	2996.00
953.91	2949.00
954.33	3005.00
954.76	2955.00
955.18	2970.00
955.60	3011.00
956.03	2994.00
956.45	3025.00
956.87	3102.00
957.30	3068.00
957.72	3039.00
958.14	2989.00
958.56	2980.00
958.99	3047.00
959.41	3105.00
959.83	3060.00
960.26	3096.00
960.68	3170.00
961.10	3115.00
961.52	3079.00
961.95	3103.00
962.37	3190.00
962.79	3167.00
963.21	3139.00
963.64	3131.00
964.06	3149.00
964.48	3182.00
964.90	3190.00
965.32	3166.00
965.75	3122.00
966.17	3202.00
966.59	3294.00
967.01	3300.00
967.44	3304.00
967.86	3335.00
968.28	3326.00
968.70	3345.00
969.12	3334.00
969.54	3361.00
969.97	3380.00
970.39	3338.00
970.81	3329.00
971.23	3348.00
971.65	3338.00
972.07	3309.00
972.50	3304.00
972.92	3256.00
973.34	3305.00
973.76	3293.00
974.18	3308.00
974.60	3271.00
975.02	3275.00
975.45	3248.00
975.87	3294.00
976.29	3331.00
976.71	3314.00
977.13	3305.00
977.55	3296.00
977.97	3311.00
978.39	3299.00
978.81	3315.00
979.24	3287.00
979.66	3314.00
980.08	3362.00
980.50	3354.00
980.92	3336.00
981.34	3380.00
981.76	3342.00
982.18	3329.00
982.60	3373.00
983.02	3400.00
983.44	3365.00
983.86	3350.00
984.28	3360.00
984.70	3343.00
985.12	3349.00
985.54	3372.00
985.96	3342.00
986.38	3324.00
986.80	3341.00
987.23	3334.00
987.65	3382.00
988.07	3349.00
988.49	3344.00
988.91	3334.00
989.33	3362.00
989.74	3338.00
990.16	3344.00
990.58	3351.00
991.00	3342.00
991.42	3340.00
991.84	3329.00
992.26	3342.00
992.68	3327.00
993.10	3323.00
993.52	3335.00
993.94	3351.00
994.36	3309.00
994.78	3318.00
995.20	3303.00
995.62	3305.00
996.04	3316.00
996.46	3360.00
996.88	3298.00
997.30	3307.00
997.71	3336.00
998.13	3330.00
998.55	3335.00
998.97	3346.00
999.39	3355.00
999.81	3336.00
1000.23	3335.00
1000.65	3330.00
1001.07	3336.00
1001.49	3329.00
1001.90	3326.00
1002.32	3297.00
1002.74	3297.00
1003.16	3308.00
1003.58	3301.00
1004.00	3267.00
1004.42	3305.00
1004.83	3317.00
1005.25	3287.00
1005.67	3278.00
1006.09	3290.00
1006.51	3278.00
1006.92	3267.00
1007.34	3263.00
1007.76	3270.00
1008.18	3286.00
1008.60	3283.00
1009.02	3279.00
1009.43	3264.00
1009.85	3288.00
1010.27	3272.00
1010.69	3264.00
1011.10	3268.00
1011.52	3264.00
1011.94	3245.00
1012.36	3234.00
1012.78	3240.00
1013.19	3234.00
1013.61	3218.00
1014.03	3230.00
1014.45	3219.00
1014.86	3211.00
1015.28	3205.00
1015.70	3170.00
1016.12	3213.00
1016.53	3188.00
1016.95	3198.00
1017.37	3182.00
1017.78	3168.00
1018.20	3180.00
1018.62	3172.00
1019.03	3163.00
1019.45	3147.00
1019.87	3150.00
1020.29	3123.00
1020.70	3139.00
1021.12	3147.00
1021.54	3131.00
1021.95	3132.00
1022.37	3130.00
1022.79	3118.00
1023.20	3124.00
1023.62	3113.00
1024.04	3119.00
1024.45	3093.00
1024.87	3095.00
1025.28	3081.00
1025.70	3079.00
1026.12	3091.00
1026.53	3065.00
1026.95	3066.00
1027.37	3077.00
1027.78	3079.00
1028.20	3065.00
1028.61	3065.00
1029.03	3056.00
1029.45	3064.00
1029.86	3028.00
1030.28	3031.00
1030.69	3019.00
1031.11	3042.00
1031.53	3043.00
1031.94	3035.00
1032.36	3023.00
1032.77	3021.00
1033.19	3008.00
1033.60	3031.00
1034.02	3011.00
1034.43	2999.00
1034.85	3012.00
1035.27	2972.00
1035.68	2995.00
1036.10	2977.00
1036.51	2971.00
1036.93	2977.00
1037.34	2978.00
1037.76	2969.00
1038.17	2961.00
1038.59	2987.00
1039.00	2968.00
1039.42	2961.00
1039.83	2942.00
1040.25	2931.00
1040.66	2935.00
1041.08	2948.00
1041.49	2944.00
1041.91	2930.00
1042.32	2934.00
1042.73	2905.00
1043.15	2901.00
1043.56	2909.00
1043.98	2898.00
1044.39	2879.00
1044.81	2891.00
1045.22	2906.00
1045.64	2884.00
1046.05	2885.00
1046.46	2877.00
1046.88	2879.00
1047.29	2883.00
1047.71	2901.00
1048.12	2876.00
1048.53	2875.00
1048.95	2879.00
1049.36	2862.00
1049.78	2859.00
1050.19	2854.00
1050.60	2857.00
1051.02	2833.00
1051.43	2835.00
1051.85	2854.00
1052.26	2839.00
1052.67	2847.00
1053.09	2830.00
1053.50	2841.00
1053.91	2857.00
1054.33	2825.00
1054.74	2822.00
1055.15	2810.00
1055.57	2819.00
1055.98	2806.00
1056.39	2805.00
1056.81	2817.00
1057.22	2800.00
1057.63	2796.00
1058.05	2798.00
1058.46	2792.00
1058.87	2786.00
1059.28	2780.00
1059.70	2795.00
1060.11	2799.00
1060.52	2785.00
1060.94	2775.00
1061.35	2762.00
1061.76	2784.00
1062.17	2786.00
1062.59	2780.00
1063.00	2768.00
1063.41	2758.00
1063.82	2757.00
1064.24	2756.00
1064.65	2759.00
1065.06	2752.00
1065.47	2760.00
1065.89	2762.00
1066.30	2749.00
1066.71	2768.00
1067.12	2743.00
1067.53	2748.00
1067.95	2745.00
1068.36	2729.00
1068.77	2728.00
1069.18	2721.00
1069.59	2732.00
1070.00	2726.00
1070.42	2733.00
1070.83	2725.00
1071.24	2731.00
1071.65	2723.00
1072.06	2722.00
1072.47	2719.00
1072.89	2711.00
1073.30	2713.00
1073.71	2720.00
1074.12	2715.00
1074.53	2721.00
1074.94	2705.00
1075.35	2717.00
1075.77	2703.00
1076.18	2711.00
1076.59	2705.00
1077.00	2697.00
1077.41	2707.00
1077.82	2710.00
1078.23	2693.00
1078.64	2707.00
1079.05	2679.00
1079.46	2697.00
1079.87	2704.00
1080.29	2696.00
1080.70	2679.00
1081.11	2684.00
1081.52	2682.00
1081.93	2702.00
1082.34	2674.00
1082.75	2679.00
1083.16	2678.00
1083.57	2676.00
1083.98	2673.00
1084.39	2673.00
1084.80	2680.00
1085.21	2662.00
1085.62	2663.00
1086.03	2693.00
1086.44	2665.00
1086.85	2679.00
1087.26	2672.00
1087.67	2661.00
1088.08	2661.00
1088.49	2668.00
1088.90	2667.00
1089.31	2664.00
1089.72	2656.00
1090.13	2650.00
1090.54	2656.00
1090.95	2654.00
1091.36	2650.00
1091.77	2645.00
1092.18	2653.00
1092.59	2655.00
1093.00	2659.00
1093.40	2650.00
1093.81	2653.00
1094.22	2644.00
1094.63	2640.00
1095.04	2645.00
1095.45	2652.00
1095.86	2640.00
1096.27	2640.00
1096.68	2637.00
1097.09	2635.00
1097.50	2632.00
1097.90	2632.00
1098.31	2624.00
1098.72	2635.00
1099.13	2629.00
1099.54	2628.00
1099.95	2638.00
1100.36	2636.00
1100.76	2630.00
1101.17	2618.00
1101.58	2626.00
1101.99	2620.00
1102.40	2623.00
1102.81	2615.00
1103.22	2619.00
1103.62	2628.00
1104.03	2622.00
1104.44	2624.00
1104.85	2615.00
1105.26	2615.00
1105.66	2613.00
1106.07	2612.00
1106.48	2610.00
1106.89	2613.00
1107.30	2612.00
1107.70	2615.00
1108.11	2617.00
1108.52	2616.00
1108.93	2611.00
1109.33	2609.00
1109.74	2604.00
1110.15	2609.00
1110.56	2611.00
1110.96	2603.00
1111.37	2606.00
1111.78	2613.00
1112.19	2603.00
1112.59	2610.00
1113.00	2605.00
1113.41	2603.00
1113.81	2607.00
1114.22	2599.00
1114.63	2575.00
1115.03	2576.00
1115.44	2576.00
1115.85	2579.00
>>>>>End Processed Spectral Data<<<<<
