SpectraSuite Data File
++++++++++++++++++++++++++++++++++++
Date: Thu Aug 05 09:52:33 EEST 2021
User: CanSEE
Dark Spectrum Present: No
Reference Spectrum Present: No
Number of Sampled Component Spectra: 1
Spectrometers: MAYP112785
Integration Time (usec): 10000 (MAYP112785)
Spectra Averaged: 1 (MAYP112785)
Boxcar Smoothing: 0 (MAYP112785)
Correct for Electrical Dark: No (MAYP112785)
Strobe/Lamp Enabled: No (MAYP112785)
Correct for Detector Non-linearity: No (MAYP112785)
Correct for Stray Light: No (MAYP112785)
Number of Pixels in Processed Spectrum: 2068
>>>>>Begin Processed Spectral Data<<<<<
198.35	3431.00
198.82	2478.00
199.30	2576.00
199.77	2561.00
200.24	2577.00
200.71	2575.00
201.18	2583.00
201.65	2583.00
202.13	2589.00
202.60	2590.00
203.07	2580.00
203.54	2582.00
204.01	2581.00
204.48	2588.00
204.96	2581.00
205.43	2581.00
205.90	2583.00
206.37	2579.00
206.84	2576.00
207.31	2577.00
207.78	2578.00
208.26	2581.00
208.73	2584.00
209.20	2583.00
209.67	2579.00
210.14	2579.00
210.61	2582.00
211.08	2584.00
211.56	2586.00
212.03	2583.00
212.50	2582.00
212.97	2579.00
213.44	2577.00
213.91	2585.00
214.38	2585.00
214.85	2571.00
215.33	2583.00
215.80	2586.00
216.27	2585.00
216.74	2583.00
217.21	2585.00
217.68	2581.00
218.15	2582.00
218.62	2583.00
219.09	2578.00
219.57	2585.00
220.04	2579.00
220.51	2583.00
220.98	2576.00
221.45	2580.00
221.92	2582.00
222.39	2582.00
222.86	2580.00
223.33	2583.00
223.80	2574.00
224.27	2580.00
224.74	2580.00
225.22	2583.00
225.69	2586.00
226.16	2590.00
226.63	2588.00
227.10	2582.00
227.57	2586.00
228.04	2580.00
228.51	2586.00
228.98	2578.00
229.45	2575.00
229.92	2578.00
230.39	2586.00
230.86	2579.00
231.33	2582.00
231.80	2583.00
232.27	2576.00
232.75	2583.00
233.22	2579.00
233.69	2587.00
234.16	2580.00
234.63	2583.00
235.10	2580.00
235.57	2577.00
236.04	2585.00
236.51	2583.00
236.98	2577.00
237.45	2582.00
237.92	2579.00
238.39	2585.00
238.86	2586.00
239.33	2629.00
239.80	2585.00
240.27	2585.00
240.74	2579.00
241.21	2579.00
241.68	2584.00
242.15	2583.00
242.62	2575.00
243.09	2583.00
243.56	2583.00
244.03	2583.00
244.50	2583.00
244.97	2586.00
245.44	2593.00
245.91	2581.00
246.38	2583.00
246.85	2580.00
247.32	2589.00
247.79	2578.00
248.26	2589.00
248.73	2581.00
249.20	2581.00
249.67	2574.00
250.14	2583.00
250.61	2583.00
251.08	2580.00
251.55	2580.00
252.02	2578.00
252.49	2583.00
252.96	2587.00
253.43	2576.00
253.90	2586.00
254.37	2579.00
254.84	2576.00
255.31	2576.00
255.77	2583.00
256.24	2575.00
256.71	2584.00
257.18	2584.00
257.65	2581.00
258.12	2585.00
258.59	2580.00
259.06	2589.00
259.53	2583.00
260.00	2587.00
260.47	2584.00
260.94	2587.00
261.41	2583.00
261.88	2585.00
262.35	2585.00
262.81	2591.00
263.28	2582.00
263.75	2578.00
264.22	2579.00
264.69	2586.00
265.16	2585.00
265.63	2593.00
266.10	2586.00
266.57	2582.00
267.04	2581.00
267.51	2590.00
267.97	2584.00
268.44	2575.00
268.91	2582.00
269.38	2585.00
269.85	2589.00
270.32	2583.00
270.79	2577.00
271.26	2586.00
271.73	2583.00
272.19	2580.00
272.66	2590.00
273.13	2576.00
273.60	2583.00
274.07	2583.00
274.54	2581.00
275.01	2579.00
275.48	2583.00
275.94	2582.00
276.41	2588.00
276.88	2578.00
277.35	2578.00
277.82	2577.00
278.29	2590.00
278.76	2581.00
279.22	2589.00
279.69	2588.00
280.16	2585.00
280.63	2583.00
281.10	2592.00
281.57	2584.00
282.04	2587.00
282.50	2587.00
282.97	2581.00
283.44	2583.00
283.91	2575.00
284.38	2583.00
284.85	2580.00
285.31	2582.00
285.78	2582.00
286.25	2581.00
286.72	2585.00
287.19	2580.00
287.65	2577.00
288.12	2578.00
288.59	2584.00
289.06	2579.00
289.53	2580.00
289.99	2579.00
290.46	2582.00
290.93	2582.00
291.40	2578.00
291.87	2582.00
292.33	2591.00
292.80	2581.00
293.27	2579.00
293.74	2584.00
294.21	2585.00
294.67	2581.00
295.14	2581.00
295.61	2587.00
296.08	2586.00
296.54	2588.00
297.01	2582.00
297.48	2588.00
297.95	2586.00
298.42	2579.00
298.88	2581.00
299.35	2584.00
299.82	2586.00
300.29	2575.00
300.75	2576.00
301.22	2582.00
301.69	2586.00
302.16	2582.00
302.62	2583.00
303.09	2581.00
303.56	2585.00
304.03	2581.00
304.49	2590.00
304.96	2594.00
305.43	2589.00
305.90	2591.00
306.36	2588.00
306.83	2590.00
307.30	2586.00
307.76	2587.00
308.23	2589.00
308.70	2593.00
309.17	2599.00
309.63	2591.00
310.10	2597.00
310.57	2601.00
311.03	2602.00
311.50	2615.00
311.97	2610.00
312.44	2614.00
312.90	2612.00
313.37	2619.00
313.84	2617.00
314.30	2620.00
314.77	2634.00
315.24	2636.00
315.70	2641.00
316.17	2633.00
316.64	2632.00
317.10	2647.00
317.57	2652.00
318.04	2653.00
318.50	2653.00
318.97	2656.00
319.44	2674.00
319.90	2659.00
320.37	2684.00
320.84	2669.00
321.30	2674.00
321.77	2667.00
322.24	2678.00
322.70	2670.00
323.17	2666.00
323.64	2680.00
324.10	2698.00
324.57	2711.00
325.04	2711.00
325.50	2717.00
325.97	2731.00
326.44	2758.00
326.90	2744.00
327.37	2745.00
327.84	2741.00
328.30	2745.00
328.77	2746.00
329.23	2762.00
329.70	2780.00
330.17	2784.00
330.63	2778.00
331.10	2773.00
331.56	2778.00
332.03	2770.00
332.50	2763.00
332.96	2771.00
333.43	2772.00
333.90	2768.00
334.36	2760.00
334.83	2779.00
335.29	2788.00
335.76	2781.00
336.22	2780.00
336.69	2750.00
337.16	2756.00
337.62	2756.00
338.09	2794.00
338.55	2805.00
339.02	2796.00
339.49	2809.00
339.95	2816.00
340.42	2813.00
340.88	2812.00
341.35	2817.00
341.81	2817.00
342.28	2823.00
342.75	2815.00
343.21	2826.00
343.68	2820.00
344.14	2814.00
344.61	2788.00
345.07	2804.00
345.54	2833.00
346.00	2842.00
346.47	2821.00
346.93	2827.00
347.40	2822.00
347.87	2820.00
348.33	2830.00
348.80	2860.00
349.26	2861.00
349.73	2842.00
350.19	2858.00
350.66	2859.00
351.12	2891.00
351.59	2859.00
352.05	2860.00
352.52	2869.00
352.98	2860.00
353.45	2906.00
353.91	2900.00
354.38	2906.00
354.84	2926.00
355.31	2889.00
355.77	2891.00
356.24	2905.00
356.70	2846.00
357.17	2838.00
357.63	2839.00
358.10	2837.00
358.56	2820.00
359.03	2852.00
359.49	2889.00
359.96	2911.00
360.42	2926.00
360.89	2904.00
361.35	2861.00
361.82	2868.00
362.28	2898.00
362.75	2926.00
363.21	2944.00
363.67	2909.00
364.14	2915.00
364.60	2927.00
365.07	2940.00
365.53	2957.00
366.00	2994.00
366.46	2970.00
366.93	2988.00
367.39	2996.00
367.86	2980.00
368.32	2982.00
368.78	2985.00
369.25	2998.00
369.71	2990.00
370.18	3029.00
370.64	3004.00
371.11	2990.00
371.57	3002.00
372.03	2987.00
372.50	2964.00
372.96	2963.00
373.43	2951.00
373.89	2922.00
374.35	2943.00
374.82	2936.00
375.28	2979.00
375.75	3006.00
376.21	3006.00
376.67	2999.00
377.14	3038.00
377.60	3085.00
378.07	3110.00
378.53	3100.00
378.99	3069.00
379.46	3010.00
379.92	3039.00
380.39	3036.00
380.85	3075.00
381.31	3055.00
381.78	3005.00
382.24	2967.00
382.70	2943.00
383.17	2905.00
383.63	2919.00
384.09	2936.00
384.56	3003.00
385.02	3049.00
385.48	3059.00
385.95	3038.00
386.41	3030.00
386.88	3053.00
387.34	3056.00
387.80	3047.00
388.27	3049.00
388.73	3082.00
389.19	3104.00
389.66	3145.00
390.12	3209.00
390.58	3198.00
391.05	3172.00
391.51	3187.00
391.97	3149.00
392.43	3099.00
392.90	3026.00
393.36	2965.00
393.82	2986.00
394.29	3070.00
394.75	3139.00
395.21	3146.00
395.68	3205.00
396.14	3170.00
396.60	3107.00
397.07	3079.00
397.53	3103.00
397.99	3278.00
398.45	3388.00
398.92	3429.00
399.38	3450.00
399.84	3514.00
400.31	3505.00
400.77	3518.00
401.23	3510.00
401.69	3576.00
402.16	3566.00
402.62	3572.00
403.08	3573.00
403.54	3558.00
404.01	3556.00
404.47	3566.00
404.93	3572.00
405.39	3543.00
405.86	3541.00
406.32	3559.00
406.78	3526.00
407.24	3604.00
407.71	3605.00
408.17	3578.00
408.63	3618.00
409.09	3657.00
409.56	3667.00
410.02	3614.00
410.48	3608.00
410.94	3607.00
411.40	3645.00
411.87	3722.00
412.33	3731.00
412.79	3707.00
413.25	3706.00
413.71	3698.00
414.18	3735.00
414.64	3735.00
415.10	3709.00
415.56	3745.00
416.02	3723.00
416.49	3738.00
416.95	3774.00
417.41	3721.00
417.87	3719.00
418.33	3741.00
418.80	3716.00
419.26	3764.00
419.72	3778.00
420.18	3747.00
420.64	3746.00
421.10	3793.00
421.57	3792.00
422.03	3821.00
422.49	3748.00
422.95	3716.00
423.41	3767.00
423.87	3774.00
424.34	3827.00
424.80	3807.00
425.26	3798.00
425.72	3774.00
426.18	3795.00
426.64	3805.00
427.10	3819.00
427.57	3721.00
428.03	3715.00
428.49	3763.00
428.95	3664.00
429.41	3665.00
429.87	3659.00
430.33	3599.00
430.79	3639.00
431.26	3650.00
431.72	3797.00
432.18	3863.00
432.64	3885.00
433.10	3814.00
433.56	3912.00
434.02	3897.00
434.48	3856.00
434.94	3959.00
435.40	3998.00
435.87	4012.00
436.33	4040.00
436.79	4068.00
437.25	4042.00
437.71	3999.00
438.17	3947.00
438.63	3966.00
439.09	3948.00
439.55	4012.00
440.01	4052.00
440.47	4064.00
440.93	4095.00
441.39	4132.00
441.85	4183.00
442.32	4165.00
442.78	4235.00
443.24	4175.00
443.70	4210.00
444.16	4209.00
444.62	4259.00
445.08	4249.00
445.54	4243.00
446.00	4174.00
446.46	4194.00
446.92	4265.00
447.38	4316.00
447.84	4349.00
448.30	4355.00
448.76	4327.00
449.22	4416.00
449.68	4413.00
450.14	4407.00
450.60	4463.00
451.06	4435.00
451.52	4474.00
451.98	4380.00
452.44	4393.00
452.90	4366.00
453.36	4348.00
453.82	4350.00
454.28	4353.00
454.74	4413.00
455.20	4454.00
455.66	4438.00
456.12	4480.00
456.58	4508.00
457.04	4504.00
457.50	4497.00
457.96	4538.00
458.42	4485.00
458.88	4506.00
459.34	4512.00
459.80	4534.00
460.26	4535.00
460.72	4478.00
461.18	4523.00
461.64	4567.00
462.10	4576.00
462.55	4624.00
463.01	4563.00
463.47	4557.00
463.93	4590.00
464.39	4540.00
464.85	4556.00
465.31	4558.00
465.77	4557.00
466.23	4547.00
466.69	4538.00
467.15	4552.00
467.61	4546.00
468.07	4604.00
468.52	4565.00
468.98	4553.00
469.44	4618.00
469.90	4571.00
470.36	4578.00
470.82	4570.00
471.28	4586.00
471.74	4627.00
472.20	4661.00
472.66	4671.00
473.11	4644.00
473.57	4624.00
474.03	4683.00
474.49	4667.00
474.95	4645.00
475.41	4652.00
475.87	4634.00
476.33	4681.00
476.78	4704.00
477.24	4667.00
477.70	4714.00
478.16	4751.00
478.62	4785.00
479.08	4722.00
479.54	4746.00
479.99	4796.00
480.45	4782.00
480.91	4767.00
481.37	4752.00
481.83	4772.00
482.29	4755.00
482.74	4791.00
483.20	4809.00
483.66	4756.00
484.12	4726.00
484.58	4689.00
485.04	4619.00
485.49	4597.00
485.95	4519.00
486.41	4517.00
486.87	4518.00
487.33	4649.00
487.78	4717.00
488.24	4720.00
488.70	4744.00
489.16	4736.00
489.62	4785.00
490.07	4817.00
490.53	4791.00
490.99	4757.00
491.45	4753.00
491.90	4809.00
492.36	4772.00
492.82	4702.00
493.28	4830.00
493.74	4771.00
494.19	4847.00
494.65	4835.00
495.11	4849.00
495.57	4913.00
496.02	4873.00
496.48	4849.00
496.94	4879.00
497.40	4849.00
497.85	4854.00
498.31	4794.00
498.77	4783.00
499.23	4804.00
499.68	4825.00
500.14	4813.00
500.60	4791.00
501.06	4741.00
501.51	4784.00
501.97	4764.00
502.43	4779.00
502.88	4775.00
503.34	4788.00
503.80	4835.00
504.26	4829.00
504.71	4825.00
505.17	4841.00
505.63	4894.00
506.08	4898.00
506.54	4894.00
507.00	4919.00
507.45	4910.00
507.91	4905.00
508.37	4841.00
508.82	4900.00
509.28	4912.00
509.74	4959.00
510.19	4912.00
510.65	4893.00
511.11	4918.00
511.56	4945.00
512.02	4905.00
512.48	4904.00
512.93	4910.00
513.39	4848.00
513.85	4893.00
514.30	4890.00
514.76	4884.00
515.22	4901.00
515.67	4860.00
516.13	4738.00
516.59	4709.00
517.04	4722.00
517.50	4612.00
517.95	4669.00
518.41	4846.00
518.87	4807.00
519.32	4893.00
519.78	4879.00
520.24	4902.00
520.69	4970.00
521.15	4955.00
521.60	4960.00
522.06	4986.00
522.52	4920.00
522.97	4979.00
523.43	4970.00
523.88	5057.00
524.34	5047.00
524.80	5080.00
525.25	4981.00
525.71	4944.00
526.16	4915.00
526.62	4908.00
527.07	4853.00
527.53	4903.00
527.99	5016.00
528.44	5053.00
528.90	5035.00
529.35	5081.00
529.81	5109.00
530.26	5088.00
530.72	5131.00
531.17	5086.00
531.63	5112.00
532.09	5096.00
532.54	5028.00
533.00	5019.00
533.45	5043.00
533.91	5036.00
534.36	5107.00
534.82	5132.00
535.27	5142.00
535.73	5165.00
536.18	5089.00
536.64	5173.00
537.09	5114.00
537.55	5106.00
538.00	5089.00
538.46	5173.00
538.91	5113.00
539.37	5098.00
539.82	4993.00
540.28	4981.00
540.73	5066.00
541.19	5062.00
541.64	5021.00
542.10	5108.00
542.55	5150.00
543.01	5059.00
543.46	5086.00
543.92	5162.00
544.37	5111.00
544.83	5156.00
545.28	5196.00
545.74	5176.00
546.19	5137.00
546.64	5163.00
547.10	5146.00
547.55	5158.00
548.01	5106.00
548.46	5135.00
548.92	5201.00
549.37	5194.00
549.83	5180.00
550.28	5210.00
550.73	5165.00
551.19	5232.00
551.64	5197.00
552.10	5157.00
552.55	5176.00
553.00	5195.00
553.46	5202.00
553.91	5196.00
554.37	5235.00
554.82	5242.00
555.28	5257.00
555.73	5209.00
556.18	5161.00
556.64	5197.00
557.09	5208.00
557.54	5160.00
558.00	5134.00
558.45	5080.00
558.91	5133.00
559.36	5077.00
559.81	5122.00
560.27	5188.00
560.72	5165.00
561.17	5144.00
561.63	5155.00
562.08	5203.00
562.54	5194.00
562.99	5119.00
563.44	5209.00
563.90	5182.00
564.35	5171.00
564.80	5159.00
565.26	5148.00
565.71	5143.00
566.16	5139.00
566.62	5164.00
567.07	5179.00
567.52	5165.00
567.98	5109.00
568.43	5154.00
568.88	5174.00
569.34	5157.00
569.79	5103.00
570.24	5127.00
570.69	5096.00
571.15	5144.00
571.60	5145.00
572.05	5230.00
572.51	5187.00
572.96	5139.00
573.41	5212.00
573.86	5170.00
574.32	5237.00
574.77	5149.00
575.22	5129.00
575.68	5113.00
576.13	5155.00
576.58	5233.00
577.03	5156.00
577.49	5186.00
577.94	5129.00
578.39	5157.00
578.84	5100.00
579.30	5163.00
579.75	5179.00
580.20	5175.00
580.65	5235.00
581.11	5218.00
581.56	5301.00
582.01	5267.00
582.46	5285.00
582.92	5255.00
583.37	5329.00
583.82	5263.00
584.27	5263.00
584.72	5258.00
585.18	5281.00
585.63	5257.00
586.08	5246.00
586.53	5301.00
586.98	5244.00
587.44	5294.00
587.89	5237.00
588.34	5132.00
588.79	4955.00
589.24	4946.00
589.70	4971.00
590.15	4993.00
590.60	5108.00
591.05	5159.00
591.50	5187.00
591.96	5161.00
592.41	5196.00
592.86	5125.00
593.31	5201.00
593.76	5128.00
594.21	5177.00
594.66	5149.00
595.12	5121.00
595.57	5202.00
596.02	5193.00
596.47	5238.00
596.92	5226.00
597.37	5227.00
597.82	5213.00
598.28	5175.00
598.73	5200.00
599.18	5162.00
599.63	5195.00
600.08	5150.00
600.53	5171.00
600.98	5143.00
601.43	5108.00
601.88	5191.00
602.34	5177.00
602.79	5196.00
603.24	5244.00
603.69	5254.00
604.14	5317.00
604.59	5210.00
605.04	5234.00
605.49	5301.00
605.94	5286.00
606.39	5235.00
606.84	5242.00
607.30	5237.00
607.75	5293.00
608.20	5307.00
608.65	5244.00
609.10	5249.00
609.55	5261.00
610.00	5239.00
610.45	5246.00
610.90	5296.00
611.35	5249.00
611.80	5288.00
612.25	5217.00
612.70	5183.00
613.15	5198.00
613.60	5233.00
614.05	5217.00
614.50	5286.00
614.95	5254.00
615.40	5221.00
615.85	5208.00
616.30	5190.00
616.75	5192.00
617.20	5148.00
617.65	5223.00
618.10	5187.00
618.55	5269.00
619.00	5264.00
619.45	5283.00
619.90	5229.00
620.35	5266.00
620.80	5265.00
621.25	5312.00
621.70	5252.00
622.15	5195.00
622.60	5181.00
623.05	5223.00
623.50	5260.00
623.95	5241.00
624.40	5179.00
624.85	5176.00
625.30	5194.00
625.75	5148.00
626.20	5196.00
626.65	5186.00
627.10	5171.00
627.55	5151.00
627.99	5162.00
628.44	5171.00
628.89	5110.00
629.34	5159.00
629.79	5181.00
630.24	5118.00
630.69	5183.00
631.14	5196.00
631.59	5218.00
632.04	5162.00
632.49	5249.00
632.94	5233.00
633.38	5270.00
633.83	5209.00
634.28	5189.00
634.73	5245.00
635.18	5289.00
635.63	5228.00
636.08	5286.00
636.53	5216.00
636.97	5290.00
637.42	5319.00
637.87	5326.00
638.32	5347.00
638.77	5358.00
639.22	5310.00
639.67	5287.00
640.11	5292.00
640.56	5210.00
641.01	5312.00
641.46	5287.00
641.91	5271.00
642.36	5319.00
642.81	5284.00
643.25	5259.00
643.70	5244.00
644.15	5280.00
644.60	5273.00
645.05	5327.00
645.49	5254.00
645.94	5269.00
646.39	5270.00
646.84	5207.00
647.29	5178.00
647.73	5194.00
648.18	5194.00
648.63	5183.00
649.08	5205.00
649.53	5139.00
649.97	5127.00
650.42	5196.00
650.87	5235.00
651.32	5279.00
651.77	5249.00
652.21	5264.00
652.66	5266.00
653.11	5278.00
653.56	5319.00
654.00	5274.00
654.45	5168.00
654.90	5158.00
655.35	5130.00
655.79	4988.00
656.24	4886.00
656.69	4859.00
657.14	4940.00
657.58	5125.00
658.03	5207.00
658.48	5227.00
658.92	5214.00
659.37	5229.00
659.82	5265.00
660.27	5308.00
660.71	5335.00
661.16	5257.00
661.61	5301.00
662.05	5278.00
662.50	5331.00
662.95	5310.00
663.39	5286.00
663.84	5265.00
664.29	5241.00
664.74	5303.00
665.18	5296.00
665.63	5326.00
666.08	5292.00
666.52	5321.00
666.97	5336.00
667.42	5275.00
667.86	5272.00
668.31	5282.00
668.76	5303.00
669.20	5343.00
669.65	5311.00
670.09	5277.00
670.54	5273.00
670.99	5295.00
671.43	5225.00
671.88	5218.00
672.33	5233.00
672.77	5258.00
673.22	5204.00
673.66	5261.00
674.11	5198.00
674.56	5270.00
675.00	5222.00
675.45	5276.00
675.90	5284.00
676.34	5276.00
676.79	5303.00
677.23	5197.00
677.68	5224.00
678.12	5283.00
678.57	5256.00
679.02	5283.00
679.46	5277.00
679.91	5227.00
680.35	5255.00
680.80	5227.00
681.25	5197.00
681.69	5261.00
682.14	5255.00
682.58	5256.00
683.03	5224.00
683.47	5216.00
683.92	5148.00
684.36	5172.00
684.81	5097.00
685.25	5164.00
685.70	5160.00
686.15	5056.00
686.59	4961.00
687.04	4542.00
687.48	4425.00
687.93	4494.00
688.37	4689.00
688.82	4744.00
689.26	4803.00
689.71	4733.00
690.15	4779.00
690.60	4796.00
691.04	4830.00
691.49	4925.00
691.93	4982.00
692.38	4955.00
692.82	4970.00
693.27	4848.00
693.71	4929.00
694.16	4961.00
694.60	4869.00
695.04	4903.00
695.49	4964.00
695.93	4918.00
696.38	4994.00
696.82	5048.00
697.27	5063.00
697.71	5045.00
698.16	5048.00
698.60	4963.00
699.04	5014.00
699.49	4962.00
699.93	4940.00
700.38	4961.00
700.82	4968.00
701.27	4940.00
701.71	4947.00
702.15	4978.00
702.60	4930.00
703.04	4971.00
703.49	4966.00
703.93	5001.00
704.37	4975.00
704.82	5070.00
705.26	4938.00
705.71	5021.00
706.15	5006.00
706.59	5051.00
707.04	4964.00
707.48	5090.00
707.93	5003.00
708.37	5019.00
708.81	5002.00
709.26	5072.00
709.70	5039.00
710.14	5043.00
710.59	4984.00
711.03	5027.00
711.47	5056.00
711.92	5022.00
712.36	4999.00
712.80	4981.00
713.25	4972.00
713.69	4994.00
714.13	4995.00
714.58	4951.00
715.02	4888.00
715.46	4893.00
715.91	4946.00
716.35	4849.00
716.79	4701.00
717.24	4519.00
717.68	4427.00
718.12	4437.00
718.57	4339.00
719.01	4352.00
719.45	4269.00
719.89	4297.00
720.34	4282.00
720.78	4377.00
721.22	4571.00
721.66	4649.00
722.11	4754.00
722.55	4744.00
722.99	4628.00
723.44	4496.00
723.88	4372.00
724.32	4416.00
724.76	4414.00
725.21	4438.00
725.65	4388.00
726.09	4423.00
726.53	4491.00
726.97	4462.00
727.42	4473.00
727.86	4351.00
728.30	4445.00
728.74	4499.00
729.19	4412.00
729.63	4464.00
730.07	4564.00
730.51	4427.00
730.95	4517.00
731.40	4511.00
731.84	4556.00
732.28	4626.00
732.72	4654.00
733.16	4694.00
733.61	4726.00
734.05	4765.00
734.49	4765.00
734.93	4728.00
735.37	4732.00
735.81	4725.00
736.26	4760.00
736.70	4747.00
737.14	4773.00
737.58	4767.00
738.02	4775.00
738.46	4773.00
738.90	4674.00
739.35	4734.00
739.79	4743.00
740.23	4789.00
740.67	4772.00
741.11	4711.00
741.55	4691.00
741.99	4780.00
742.44	4759.00
742.88	4802.00
743.32	4774.00
743.76	4811.00
744.20	4750.00
744.64	4807.00
745.08	4762.00
745.52	4787.00
745.96	4841.00
746.40	4816.00
746.84	4751.00
747.29	4810.00
747.73	4775.00
748.17	4770.00
748.61	4827.00
749.05	4774.00
749.49	4825.00
749.93	4757.00
750.37	4795.00
750.81	4798.00
751.25	4742.00
751.69	4797.00
752.13	4830.00
752.57	4843.00
753.01	4740.00
753.45	4792.00
753.89	4763.00
754.33	4810.00
754.77	4812.00
755.21	4793.00
755.65	4715.00
756.09	4783.00
756.53	4827.00
756.97	4811.00
757.41	4757.00
757.85	4797.00
758.29	4702.00
758.73	4697.00
759.17	4538.00
759.61	3934.00
760.05	3313.00
760.49	2973.00
760.93	2912.00
761.37	3118.00
761.81	3495.00
762.25	3631.00
762.69	3483.00
763.13	3327.00
763.57	3363.00
764.01	3453.00
764.45	3569.00
764.89	3713.00
765.33	3859.00
765.77	3980.00
766.21	4179.00
766.65	4220.00
767.09	4382.00
767.53	4534.00
767.96	4544.00
768.40	4537.00
768.84	4600.00
769.28	4613.00
769.72	4630.00
770.16	4594.00
770.60	4672.00
771.04	4715.00
771.48	4651.00
771.92	4659.00
772.35	4689.00
772.79	4688.00
773.23	4719.00
773.67	4702.00
774.11	4680.00
774.55	4714.00
774.99	4616.00
775.43	4707.00
775.86	4687.00
776.30	4684.00
776.74	4655.00
777.18	4673.00
777.62	4645.00
778.06	4628.00
778.50	4680.00
778.93	4606.00
779.37	4582.00
779.81	4650.00
780.25	4616.00
780.69	4596.00
781.12	4603.00
781.56	4597.00
782.00	4658.00
782.44	4637.00
782.88	4629.00
783.32	4551.00
783.75	4598.00
784.19	4544.00
784.63	4619.00
785.07	4550.00
785.50	4547.00
785.94	4588.00
786.38	4591.00
786.82	4558.00
787.26	4540.00
787.69	4509.00
788.13	4503.00
788.57	4552.00
789.01	4526.00
789.44	4453.00
789.88	4484.00
790.32	4447.00
790.76	4469.00
791.19	4413.00
791.63	4396.00
792.07	4392.00
792.51	4406.00
792.94	4399.00
793.38	4384.00
793.82	4421.00
794.25	4453.00
794.69	4424.00
795.13	4443.00
795.56	4438.00
796.00	4348.00
796.44	4358.00
796.88	4365.00
797.31	4351.00
797.75	4352.00
798.19	4384.00
798.62	4398.00
799.06	4374.00
799.50	4354.00
799.93	4372.00
800.37	4322.00
800.81	4370.00
801.24	4339.00
801.68	4347.00
802.12	4335.00
802.55	4281.00
802.99	4269.00
803.43	4274.00
803.86	4317.00
804.30	4294.00
804.73	4285.00
805.17	4275.00
805.61	4323.00
806.04	4356.00
806.48	4363.00
806.92	4326.00
807.35	4319.00
807.79	4304.00
808.22	4247.00
808.66	4267.00
809.10	4277.00
809.53	4277.00
809.97	4220.00
810.40	4222.00
810.84	4175.00
811.27	4199.00
811.71	4152.00
812.15	4193.00
812.58	4165.00
813.02	4111.00
813.45	4019.00
813.89	3983.00
814.32	3949.00
814.76	3906.00
815.19	3866.00
815.63	3879.00
816.07	3835.00
816.50	3784.00
816.94	3812.00
817.37	3908.00
817.81	3834.00
818.24	3790.00
818.68	3860.00
819.11	3850.00
819.55	3875.00
819.98	3888.00
820.42	3994.00
820.85	4054.00
821.29	4051.00
821.72	3958.00
822.16	3929.00
822.59	3734.00
823.03	3602.00
823.46	3679.00
823.90	3890.00
824.33	3954.00
824.77	3976.00
825.20	4040.00
825.63	3962.00
826.07	3939.00
826.50	4017.00
826.94	4038.00
827.37	3910.00
827.81	3882.00
828.24	3890.00
828.68	3873.00
829.11	3893.00
829.54	3884.00
829.98	3925.00
830.41	3927.00
830.85	3960.00
831.28	3995.00
831.71	3955.00
832.15	3984.00
832.58	3970.00
833.02	3972.00
833.45	3949.00
833.88	3918.00
834.32	4001.00
834.75	3988.00
835.19	3992.00
835.62	4026.00
836.05	3996.00
836.49	4014.00
836.92	3976.00
837.35	4002.00
837.79	4030.00
838.22	4088.00
838.66	4078.00
839.09	4075.00
839.52	4083.00
839.96	4082.00
840.39	4062.00
840.82	4061.00
841.26	4035.00
841.69	4100.00
842.12	4012.00
842.56	4074.00
842.99	4063.00
843.42	4030.00
843.85	4032.00
844.29	4063.00
844.72	4062.00
845.15	4093.00
845.59	4119.00
846.02	4103.00
846.45	4098.00
846.88	4051.00
847.32	4070.00
847.75	4071.00
848.18	4041.00
848.62	4049.00
849.05	4000.00
849.48	3928.00
849.91	3907.00
850.35	3976.00
850.78	3996.00
851.21	4018.00
851.64	3998.00
852.08	4025.00
852.51	4037.00
852.94	4042.00
853.37	4002.00
853.80	3876.00
854.24	3720.00
854.67	3796.00
855.10	3959.00
855.53	3937.00
855.97	4001.00
856.40	4006.00
856.83	4029.00
857.26	4018.00
857.69	4026.00
858.13	4018.00
858.56	4061.00
858.99	4024.00
859.42	4039.00
859.85	4081.00
860.28	4064.00
860.72	4056.00
861.15	3981.00
861.58	4026.00
862.01	3990.00
862.44	3966.00
862.87	3973.00
863.30	4004.00
863.74	4016.00
864.17	4004.00
864.60	3932.00
865.03	3977.00
865.46	3955.00
865.89	3796.00
866.32	3772.00
866.75	3924.00
867.19	3903.00
867.62	3965.00
868.05	3969.00
868.48	3933.00
868.91	3916.00
869.34	3977.00
869.77	3965.00
870.20	3977.00
870.63	3960.00
871.06	3926.00
871.49	3958.00
871.93	3930.00
872.36	3968.00
872.79	3932.00
873.22	3911.00
873.65	3940.00
874.08	3926.00
874.51	3979.00
874.94	3957.00
875.37	3944.00
875.80	3977.00
876.23	3946.00
876.66	3943.00
877.09	3925.00
877.52	3899.00
877.95	3917.00
878.38	3897.00
878.81	3910.00
879.24	3881.00
879.67	3873.00
880.10	3855.00
880.53	3879.00
880.96	3883.00
881.39	3906.00
881.82	3883.00
882.25	3915.00
882.68	3923.00
883.11	3920.00
883.54	3893.00
883.97	3905.00
884.40	3921.00
884.83	3957.00
885.26	3874.00
885.69	3850.00
886.12	3854.00
886.55	3854.00
886.98	3865.00
887.40	3884.00
887.83	3858.00
888.26	3875.00
888.69	3891.00
889.12	3886.00
889.55	3885.00
889.98	3941.00
890.41	3928.00
890.84	3880.00
891.27	3855.00
891.70	3885.00
892.12	3855.00
892.55	3794.00
892.98	3807.00
893.41	3799.00
893.84	3757.00
894.27	3704.00
894.70	3681.00
895.13	3657.00
895.55	3666.00
895.98	3575.00
896.41	3569.00
896.84	3550.00
897.27	3581.00
897.70	3579.00
898.13	3594.00
898.55	3388.00
898.98	3429.00
899.41	3583.00
899.84	3482.00
900.27	3471.00
900.70	3462.00
901.12	3488.00
901.55	3485.00
901.98	3471.00
902.41	3522.00
902.84	3579.00
903.26	3694.00
903.69	3655.00
904.12	3671.00
904.55	3666.00
904.97	3657.00
905.40	3611.00
905.83	3569.00
906.26	3562.00
906.69	3461.00
907.11	3449.00
907.54	3466.00
907.97	3473.00
908.40	3435.00
908.82	3432.00
909.25	3431.00
909.68	3440.00
910.10	3445.00
910.53	3442.00
910.96	3513.00
911.39	3443.00
911.81	3477.00
912.24	3473.00
912.67	3368.00
913.09	3323.00
913.52	3379.00
913.95	3473.00
914.38	3501.00
914.80	3403.00
915.23	3343.00
915.66	3435.00
916.08	3485.00
916.51	3495.00
916.94	3332.00
917.36	3360.00
917.79	3430.00
918.22	3472.00
918.64	3525.00
919.07	3465.00
919.50	3483.00
919.92	3546.00
920.35	3517.00
920.78	3460.00
921.20	3441.00
921.63	3490.00
922.05	3489.00
922.48	3473.00
922.91	3448.00
923.33	3463.00
923.76	3453.00
924.18	3427.00
924.61	3457.00
925.04	3446.00
925.46	3419.00
925.89	3442.00
926.31	3403.00
926.74	3357.00
927.17	3306.00
927.59	3247.00
928.02	3206.00
928.44	3190.00
928.87	3136.00
929.29	3096.00
929.72	3088.00
930.15	3036.00
930.57	2992.00
931.00	2928.00
931.42	2890.00
931.85	2861.00
932.27	2876.00
932.70	2855.00
933.12	2786.00
933.55	2774.00
933.97	2761.00
934.40	2859.00
934.82	2813.00
935.25	2789.00
935.67	2814.00
936.10	2791.00
936.52	2754.00
936.95	2782.00
937.37	2762.00
937.80	2783.00
938.22	2866.00
938.65	2927.00
939.07	2917.00
939.50	2878.00
939.92	2859.00
940.35	2829.00
940.77	2839.00
941.19	2845.00
941.62	2843.00
942.04	2794.00
942.47	2798.00
942.89	2836.00
943.32	2760.00
943.74	2757.00
944.16	2826.00
944.59	2828.00
945.01	2783.00
945.44	2775.00
945.86	2812.00
946.29	2817.00
946.71	2825.00
947.13	2810.00
947.56	2806.00
947.98	2849.00
948.40	2877.00
948.83	2795.00
949.25	2753.00
949.68	2831.00
950.10	2908.00
950.52	2907.00
950.95	2850.00
951.37	2803.00
951.79	2823.00
952.22	2838.00
952.64	2907.00
953.06	2913.00
953.49	2880.00
953.91	2871.00
954.33	2872.00
954.76	2871.00
955.18	2911.00
955.60	2877.00
956.03	2894.00
956.45	2952.00
956.87	2980.00
957.30	2950.00
957.72	2958.00
958.14	2895.00
958.56	2869.00
958.99	2912.00
959.41	2986.00
959.83	2947.00
960.26	2988.00
960.68	3040.00
961.10	2998.00
961.52	2969.00
961.95	2996.00
962.37	3039.00
962.79	3027.00
963.21	3002.00
963.64	3040.00
964.06	3037.00
964.48	3068.00
964.90	3075.00
965.32	3014.00
965.75	3016.00
966.17	3089.00
966.59	3168.00
967.01	3158.00
967.44	3159.00
967.86	3179.00
968.28	3191.00
968.70	3197.00
969.12	3193.00
969.54	3214.00
969.97	3223.00
970.39	3227.00
970.81	3210.00
971.23	3206.00
971.65	3177.00
972.07	3158.00
972.50	3129.00
972.92	3112.00
973.34	3143.00
973.76	3126.00
974.18	3126.00
974.60	3115.00
975.02	3116.00
975.45	3100.00
975.87	3142.00
976.29	3186.00
976.71	3194.00
977.13	3156.00
977.55	3191.00
977.97	3139.00
978.39	3143.00
978.81	3194.00
979.24	3161.00
979.66	3181.00
980.08	3182.00
980.50	3220.00
980.92	3199.00
981.34	3179.00
981.76	3173.00
982.18	3204.00
982.60	3205.00
983.02	3205.00
983.44	3182.00
983.86	3192.00
984.28	3189.00
984.70	3178.00
985.12	3194.00
985.54	3191.00
985.96	3158.00
986.38	3171.00
986.80	3183.00
987.23	3209.00
987.65	3209.00
988.07	3195.00
988.49	3205.00
988.91	3216.00
989.33	3211.00
989.74	3205.00
990.16	3194.00
990.58	3192.00
991.00	3170.00
991.42	3187.00
991.84	3149.00
992.26	3207.00
992.68	3186.00
993.10	3194.00
993.52	3186.00
993.94	3170.00
994.36	3171.00
994.78	3163.00
995.20	3161.00
995.62	3204.00
996.04	3158.00
996.46	3163.00
996.88	3193.00
997.30	3176.00
997.71	3170.00
998.13	3158.00
998.55	3203.00
998.97	3205.00
999.39	3192.00
999.81	3211.00
1000.23	3193.00
1000.65	3170.00
1001.07	3160.00
1001.49	3192.00
1001.90	3160.00
1002.32	3173.00
1002.74	3186.00
1003.16	3160.00
1003.58	3167.00
1004.00	3148.00
1004.42	3178.00
1004.83	3175.00
1005.25	3150.00
1005.67	3152.00
1006.09	3151.00
1006.51	3160.00
1006.92	3127.00
1007.34	3126.00
1007.76	3132.00
1008.18	3147.00
1008.60	3145.00
1009.02	3137.00
1009.43	3138.00
1009.85	3144.00
1010.27	3131.00
1010.69	3096.00
1011.10	3126.00
1011.52	3123.00
1011.94	3097.00
1012.36	3103.00
1012.78	3124.00
1013.19	3092.00
1013.61	3094.00
1014.03	3076.00
1014.45	3121.00
1014.86	3089.00
1015.28	3090.00
1015.70	3072.00
1016.12	3080.00
1016.53	3064.00
1016.95	3068.00
1017.37	3046.00
1017.78	3050.00
1018.20	3035.00
1018.62	3042.00
1019.03	3018.00
1019.45	3030.00
1019.87	3023.00
1020.29	3027.00
1020.70	3036.00
1021.12	3056.00
1021.54	3017.00
1021.95	2994.00
1022.37	3033.00
1022.79	3015.00
1023.20	3020.00
1023.62	3031.00
1024.04	2999.00
1024.45	2995.00
1024.87	2983.00
1025.28	2971.00
1025.70	2987.00
1026.12	2980.00
1026.53	2992.00
1026.95	2966.00
1027.37	2983.00
1027.78	2951.00
1028.20	2964.00
1028.61	2976.00
1029.03	2950.00
1029.45	2919.00
1029.86	2934.00
1030.28	2922.00
1030.69	2941.00
1031.11	2932.00
1031.53	2932.00
1031.94	2909.00
1032.36	2900.00
1032.77	2899.00
1033.19	2923.00
1033.60	2897.00
1034.02	2911.00
1034.43	2914.00
1034.85	2880.00
1035.27	2903.00
1035.68	2890.00
1036.10	2909.00
1036.51	2872.00
1036.93	2885.00
1037.34	2884.00
1037.76	2872.00
1038.17	2855.00
1038.59	2857.00
1039.00	2886.00
1039.42	2880.00
1039.83	2880.00
1040.25	2864.00
1040.66	2867.00
1041.08	2845.00
1041.49	2851.00
1041.91	2841.00
1042.32	2844.00
1042.73	2842.00
1043.15	2821.00
1043.56	2825.00
1043.98	2815.00
1044.39	2808.00
1044.81	2831.00
1045.22	2817.00
1045.64	2814.00
1046.05	2803.00
1046.46	2823.00
1046.88	2795.00
1047.29	2800.00
1047.71	2806.00
1048.12	2802.00
1048.53	2779.00
1048.95	2797.00
1049.36	2807.00
1049.78	2797.00
1050.19	2779.00
1050.60	2788.00
1051.02	2781.00
1051.43	2773.00
1051.85	2766.00
1052.26	2787.00
1052.67	2760.00
1053.09	2777.00
1053.50	2771.00
1053.91	2765.00
1054.33	2768.00
1054.74	2761.00
1055.15	2764.00
1055.57	2753.00
1055.98	2758.00
1056.39	2753.00
1056.81	2742.00
1057.22	2733.00
1057.63	2743.00
1058.05	2730.00
1058.46	2742.00
1058.87	2747.00
1059.28	2726.00
1059.70	2732.00
1060.11	2715.00
1060.52	2726.00
1060.94	2717.00
1061.35	2725.00
1061.76	2710.00
1062.17	2729.00
1062.59	2720.00
1063.00	2714.00
1063.41	2714.00
1063.82	2708.00
1064.24	2707.00
1064.65	2699.00
1065.06	2711.00
1065.47	2701.00
1065.89	2710.00
1066.30	2701.00
1066.71	2703.00
1067.12	2687.00
1067.53	2688.00
1067.95	2681.00
1068.36	2687.00
1068.77	2685.00
1069.18	2690.00
1069.59	2681.00
1070.00	2687.00
1070.42	2672.00
1070.83	2666.00
1071.24	2680.00
1071.65	2677.00
1072.06	2655.00
1072.47	2670.00
1072.89	2673.00
1073.30	2672.00
1073.71	2667.00
1074.12	2670.00
1074.53	2674.00
1074.94	2678.00
1075.35	2657.00
1075.77	2673.00
1076.18	2664.00
1076.59	2663.00
1077.00	2654.00
1077.41	2656.00
1077.82	2643.00
1078.23	2654.00
1078.64	2650.00
1079.05	2648.00
1079.46	2656.00
1079.87	2647.00
1080.29	2657.00
1080.70	2649.00
1081.11	2654.00
1081.52	2638.00
1081.93	2646.00
1082.34	2633.00
1082.75	2646.00
1083.16	2638.00
1083.57	2647.00
1083.98	2636.00
1084.39	2631.00
1084.80	2642.00
1085.21	2638.00
1085.62	2622.00
1086.03	2647.00
1086.44	2631.00
1086.85	2637.00
1087.26	2631.00
1087.67	2631.00
1088.08	2623.00
1088.49	2615.00
1088.90	2627.00
1089.31	2630.00
1089.72	2624.00
1090.13	2619.00
1090.54	2626.00
1090.95	2613.00
1091.36	2624.00
1091.77	2615.00
1092.18	2628.00
1092.59	2617.00
1093.00	2615.00
1093.40	2616.00
1093.81	2605.00
1094.22	2612.00
1094.63	2610.00
1095.04	2611.00
1095.45	2599.00
1095.86	2610.00
1096.27	2599.00
1096.68	2596.00
1097.09	2608.00
1097.50	2612.00
1097.90	2604.00
1098.31	2598.00
1098.72	2605.00
1099.13	2598.00
1099.54	2600.00
1099.95	2597.00
1100.36	2599.00
1100.76	2599.00
1101.17	2597.00
1101.58	2599.00
1101.99	2594.00
1102.40	2595.00
1102.81	2591.00
1103.22	2595.00
1103.62	2589.00
1104.03	2592.00
1104.44	2587.00
1104.85	2596.00
1105.26	2578.00
1105.66	2593.00
1106.07	2581.00
1106.48	2592.00
1106.89	2594.00
1107.30	2583.00
1107.70	2588.00
1108.11	2593.00
1108.52	2588.00
1108.93	2581.00
1109.33	2585.00
1109.74	2579.00
1110.15	2586.00
1110.56	2580.00
1110.96	2587.00
1111.37	2586.00
1111.78	2582.00
1112.19	2591.00
1112.59	2583.00
1113.00	2581.00
1113.41	2583.00
1113.81	2577.00
1114.22	2585.00
1114.63	2561.00
1115.03	2561.00
1115.44	2556.00
1115.85	2557.00
>>>>>End Processed Spectral Data<<<<<
