SpectraSuite Data File
++++++++++++++++++++++++++++++++++++
Date: Thu Aug 05 10:44:12 EEST 2021
User: CanSEE
Dark Spectrum Present: No
Reference Spectrum Present: No
Number of Sampled Component Spectra: 1
Spectrometers: MAYP112785
Integration Time (usec): 10000 (MAYP112785)
Spectra Averaged: 1 (MAYP112785)
Boxcar Smoothing: 0 (MAYP112785)
Correct for Electrical Dark: No (MAYP112785)
Strobe/Lamp Enabled: No (MAYP112785)
Correct for Detector Non-linearity: No (MAYP112785)
Correct for Stray Light: No (MAYP112785)
Number of Pixels in Processed Spectrum: 2068
>>>>>Begin Processed Spectral Data<<<<<
198.35	3467.00
198.82	2481.00
199.30	2585.00
199.77	2569.00
200.24	2603.00
200.71	2597.00
201.18	2597.00
201.65	2603.00
202.13	2607.00
202.60	2610.00
203.07	2599.00
203.54	2602.00
204.01	2598.00
204.48	2603.00
204.96	2596.00
205.43	2608.00
205.90	2599.00
206.37	2600.00
206.84	2594.00
207.31	2597.00
207.78	2596.00
208.26	2602.00
208.73	2595.00
209.20	2602.00
209.67	2598.00
210.14	2603.00
210.61	2599.00
211.08	2610.00
211.56	2597.00
212.03	2594.00
212.50	2599.00
212.97	2594.00
213.44	2598.00
213.91	2601.00
214.38	2602.00
214.85	2595.00
215.33	2600.00
215.80	2597.00
216.27	2600.00
216.74	2601.00
217.21	2599.00
217.68	2597.00
218.15	2602.00
218.62	2602.00
219.09	2599.00
219.57	2594.00
220.04	2598.00
220.51	2602.00
220.98	2601.00
221.45	2602.00
221.92	2605.00
222.39	2601.00
222.86	2597.00
223.33	2597.00
223.80	2596.00
224.27	2601.00
224.74	2598.00
225.22	2596.00
225.69	2598.00
226.16	2599.00
226.63	2606.00
227.10	2604.00
227.57	2608.00
228.04	2600.00
228.51	2603.00
228.98	2597.00
229.45	2604.00
229.92	2603.00
230.39	2601.00
230.86	2602.00
231.33	2597.00
231.80	2603.00
232.27	2598.00
232.75	2597.00
233.22	2597.00
233.69	2602.00
234.16	2605.00
234.63	2595.00
235.10	2604.00
235.57	2598.00
236.04	2605.00
236.51	2603.00
236.98	2603.00
237.45	2606.00
237.92	2600.00
238.39	2606.00
238.86	2607.00
239.33	2668.00
239.80	2599.00
240.27	2597.00
240.74	2601.00
241.21	2602.00
241.68	2599.00
242.15	2606.00
242.62	2603.00
243.09	2597.00
243.56	2604.00
244.03	2604.00
244.50	2602.00
244.97	2600.00
245.44	2617.00
245.91	2593.00
246.38	2603.00
246.85	2606.00
247.32	2608.00
247.79	2595.00
248.26	2606.00
248.73	2592.00
249.20	2601.00
249.67	2591.00
250.14	2601.00
250.61	2604.00
251.08	2602.00
251.55	2607.00
252.02	2605.00
252.49	2605.00
252.96	2603.00
253.43	2599.00
253.90	2596.00
254.37	2604.00
254.84	2602.00
255.31	2597.00
255.77	2604.00
256.24	2605.00
256.71	2599.00
257.18	2605.00
257.65	2599.00
258.12	2601.00
258.59	2602.00
259.06	2601.00
259.53	2599.00
260.00	2602.00
260.47	2599.00
260.94	2606.00
261.41	2602.00
261.88	2614.00
262.35	2602.00
262.81	2604.00
263.28	2606.00
263.75	2600.00
264.22	2604.00
264.69	2602.00
265.16	2597.00
265.63	2602.00
266.10	2594.00
266.57	2600.00
267.04	2601.00
267.51	2603.00
267.97	2596.00
268.44	2608.00
268.91	2600.00
269.38	2600.00
269.85	2594.00
270.32	2600.00
270.79	2599.00
271.26	2600.00
271.73	2595.00
272.19	2605.00
272.66	2605.00
273.13	2605.00
273.60	2599.00
274.07	2607.00
274.54	2596.00
275.01	2601.00
275.48	2603.00
275.94	2602.00
276.41	2603.00
276.88	2599.00
277.35	2601.00
277.82	2602.00
278.29	2608.00
278.76	2601.00
279.22	2599.00
279.69	2597.00
280.16	2609.00
280.63	2601.00
281.10	2595.00
281.57	2609.00
282.04	2601.00
282.50	2606.00
282.97	2598.00
283.44	2603.00
283.91	2599.00
284.38	2593.00
284.85	2608.00
285.31	2597.00
285.78	2596.00
286.25	2596.00
286.72	2610.00
287.19	2604.00
287.65	2602.00
288.12	2605.00
288.59	2607.00
289.06	2595.00
289.53	2608.00
289.99	2601.00
290.46	2594.00
290.93	2611.00
291.40	2598.00
291.87	2588.00
292.33	2604.00
292.80	2603.00
293.27	2604.00
293.74	2602.00
294.21	2597.00
294.67	2601.00
295.14	2600.00
295.61	2599.00
296.08	2602.00
296.54	2604.00
297.01	2600.00
297.48	2605.00
297.95	2607.00
298.42	2608.00
298.88	2601.00
299.35	2604.00
299.82	2598.00
300.29	2600.00
300.75	2593.00
301.22	2600.00
301.69	2603.00
302.16	2595.00
302.62	2598.00
303.09	2607.00
303.56	2599.00
304.03	2606.00
304.49	2600.00
304.96	2596.00
305.43	2596.00
305.90	2598.00
306.36	2600.00
306.83	2603.00
307.30	2610.00
307.76	2599.00
308.23	2596.00
308.70	2606.00
309.17	2593.00
309.63	2598.00
310.10	2601.00
310.57	2603.00
311.03	2600.00
311.50	2605.00
311.97	2601.00
312.44	2602.00
312.90	2593.00
313.37	2600.00
313.84	2600.00
314.30	2602.00
314.77	2606.00
315.24	2605.00
315.70	2600.00
316.17	2593.00
316.64	2603.00
317.10	2599.00
317.57	2609.00
318.04	2602.00
318.50	2604.00
318.97	2593.00
319.44	2591.00
319.90	2600.00
320.37	2603.00
320.84	2600.00
321.30	2600.00
321.77	2594.00
322.24	2598.00
322.70	2601.00
323.17	2601.00
323.64	2598.00
324.10	2598.00
324.57	2600.00
325.04	2603.00
325.50	2600.00
325.97	2603.00
326.44	2601.00
326.90	2598.00
327.37	2595.00
327.84	2605.00
328.30	2603.00
328.77	2596.00
329.23	2596.00
329.70	2598.00
330.17	2607.00
330.63	2600.00
331.10	2594.00
331.56	2603.00
332.03	2597.00
332.50	2596.00
332.96	2597.00
333.43	2601.00
333.90	2596.00
334.36	2605.00
334.83	2601.00
335.29	2598.00
335.76	2603.00
336.22	2599.00
336.69	2598.00
337.16	2602.00
337.62	2595.00
338.09	2605.00
338.55	2605.00
339.02	2600.00
339.49	2604.00
339.95	2598.00
340.42	2598.00
340.88	2601.00
341.35	2603.00
341.81	2603.00
342.28	2606.00
342.75	2601.00
343.21	2600.00
343.68	2599.00
344.14	2600.00
344.61	2597.00
345.07	2599.00
345.54	2599.00
346.00	2606.00
346.47	2597.00
346.93	2598.00
347.40	2600.00
347.87	2602.00
348.33	2591.00
348.80	2606.00
349.26	2593.00
349.73	2610.00
350.19	2600.00
350.66	2603.00
351.12	2605.00
351.59	2596.00
352.05	2617.00
352.52	2598.00
352.98	2597.00
353.45	2594.00
353.91	2599.00
354.38	2597.00
354.84	2603.00
355.31	2599.00
355.77	2601.00
356.24	2600.00
356.70	2602.00
357.17	2598.00
357.63	2593.00
358.10	2602.00
358.56	2612.00
359.03	2599.00
359.49	2597.00
359.96	2600.00
360.42	2593.00
360.89	2599.00
361.35	2589.00
361.82	2591.00
362.28	2592.00
362.75	2600.00
363.21	2597.00
363.67	2597.00
364.14	2599.00
364.60	2605.00
365.07	2600.00
365.53	2601.00
366.00	2593.00
366.46	2600.00
366.93	2603.00
367.39	2600.00
367.86	2601.00
368.32	2594.00
368.78	2607.00
369.25	2589.00
369.71	2594.00
370.18	2603.00
370.64	2601.00
371.11	2601.00
371.57	2603.00
372.03	2596.00
372.50	2595.00
372.96	2605.00
373.43	2595.00
373.89	2610.00
374.35	2599.00
374.82	2592.00
375.28	2604.00
375.75	2596.00
376.21	2593.00
376.67	2599.00
377.14	2589.00
377.60	2600.00
378.07	2603.00
378.53	2607.00
378.99	2587.00
379.46	2600.00
379.92	2604.00
380.39	2604.00
380.85	2600.00
381.31	2596.00
381.78	2600.00
382.24	2604.00
382.70	2600.00
383.17	2600.00
383.63	2605.00
384.09	2602.00
384.56	2592.00
385.02	2604.00
385.48	2600.00
385.95	2593.00
386.41	2595.00
386.88	2597.00
387.34	2598.00
387.80	2603.00
388.27	2600.00
388.73	2598.00
389.19	2605.00
389.66	2599.00
390.12	2597.00
390.58	2598.00
391.05	2604.00
391.51	2595.00
391.97	2605.00
392.43	2616.00
392.90	2607.00
393.36	2613.00
393.82	2615.00
394.29	2625.00
394.75	2639.00
395.21	2645.00
395.68	2647.00
396.14	2645.00
396.60	2649.00
397.07	2665.00
397.53	2671.00
397.99	2711.00
398.45	2737.00
398.92	2789.00
399.38	2828.00
399.84	2822.00
400.31	2858.00
400.77	2899.00
401.23	2934.00
401.69	2965.00
402.16	2955.00
402.62	3014.00
403.08	3056.00
403.54	3048.00
404.01	3067.00
404.47	3104.00
404.93	3126.00
405.39	3159.00
405.86	3141.00
406.32	3198.00
406.78	3238.00
407.24	3276.00
407.71	3331.00
408.17	3331.00
408.63	3368.00
409.09	3388.00
409.56	3460.00
410.02	3432.00
410.48	3420.00
410.94	3494.00
411.40	3537.00
411.87	3586.00
412.33	3600.00
412.79	3617.00
413.25	3611.00
413.71	3634.00
414.18	3646.00
414.64	3664.00
415.10	3704.00
415.56	3731.00
416.02	3751.00
416.49	3755.00
416.95	3782.00
417.41	3742.00
417.87	3749.00
418.33	3742.00
418.80	3762.00
419.26	3722.00
419.72	3811.00
420.18	3768.00
420.64	3849.00
421.10	3845.00
421.57	3888.00
422.03	3867.00
422.49	3832.00
422.95	3818.00
423.41	3823.00
423.87	3844.00
424.34	3847.00
424.80	3866.00
425.26	3858.00
425.72	3845.00
426.18	3887.00
426.64	3883.00
427.10	3834.00
427.57	3844.00
428.03	3811.00
428.49	3818.00
428.95	3791.00
429.41	3728.00
429.87	3717.00
430.33	3657.00
430.79	3686.00
431.26	3711.00
431.72	3837.00
432.18	3965.00
432.64	4023.00
433.10	3946.00
433.56	3970.00
434.02	3940.00
434.48	3952.00
434.94	3979.00
435.40	4102.00
435.87	4087.00
436.33	4098.00
436.79	4130.00
437.25	4087.00
437.71	4079.00
438.17	4066.00
438.63	4067.00
439.09	4017.00
439.55	4069.00
440.01	4127.00
440.47	4207.00
440.93	4170.00
441.39	4291.00
441.85	4274.00
442.32	4296.00
442.78	4315.00
443.24	4341.00
443.70	4318.00
444.16	4312.00
444.62	4359.00
445.08	4324.00
445.54	4280.00
446.00	4324.00
446.46	4319.00
446.92	4376.00
447.38	4425.00
447.84	4448.00
448.30	4453.00
448.76	4495.00
449.22	4489.00
449.68	4525.00
450.14	4499.00
450.60	4624.00
451.06	4650.00
451.52	4542.00
451.98	4538.00
452.44	4473.00
452.90	4513.00
453.36	4443.00
453.82	4522.00
454.28	4573.00
454.74	4558.00
455.20	4574.00
455.66	4570.00
456.12	4621.00
456.58	4706.00
457.04	4666.00
457.50	4641.00
457.96	4618.00
458.42	4649.00
458.88	4579.00
459.34	4632.00
459.80	4616.00
460.26	4621.00
460.72	4666.00
461.18	4732.00
461.64	4689.00
462.10	4748.00
462.55	4714.00
463.01	4736.00
463.47	4693.00
463.93	4684.00
464.39	4695.00
464.85	4685.00
465.31	4680.00
465.77	4685.00
466.23	4705.00
466.69	4725.00
467.15	4661.00
467.61	4697.00
468.07	4768.00
468.52	4747.00
468.98	4718.00
469.44	4741.00
469.90	4708.00
470.36	4697.00
470.82	4722.00
471.28	4737.00
471.74	4779.00
472.20	4804.00
472.66	4810.00
473.11	4821.00
473.57	4817.00
474.03	4862.00
474.49	4811.00
474.95	4840.00
475.41	4786.00
475.87	4802.00
476.33	4840.00
476.78	4843.00
477.24	4853.00
477.70	4907.00
478.16	4914.00
478.62	4905.00
479.08	4929.00
479.54	4889.00
479.99	4918.00
480.45	4981.00
480.91	5002.00
481.37	4881.00
481.83	4986.00
482.29	4974.00
482.74	5002.00
483.20	4890.00
483.66	4941.00
484.12	4899.00
484.58	4880.00
485.04	4838.00
485.49	4772.00
485.95	4709.00
486.41	4653.00
486.87	4654.00
487.33	4772.00
487.78	4801.00
488.24	4856.00
488.70	4883.00
489.16	4931.00
489.62	4900.00
490.07	4946.00
490.53	4976.00
490.99	4923.00
491.45	4923.00
491.90	4936.00
492.36	4948.00
492.82	4850.00
493.28	4968.00
493.74	5003.00
494.19	5045.00
494.65	5034.00
495.11	5028.00
495.57	5003.00
496.02	5018.00
496.48	5006.00
496.94	5040.00
497.40	4981.00
497.85	5085.00
498.31	4988.00
498.77	4943.00
499.23	4959.00
499.68	5015.00
500.14	4968.00
500.60	4908.00
501.06	4892.00
501.51	4897.00
501.97	4898.00
502.43	4984.00
502.88	4935.00
503.34	4933.00
503.80	4954.00
504.26	4925.00
504.71	4991.00
505.17	5090.00
505.63	5037.00
506.08	5045.00
506.54	5085.00
507.00	5073.00
507.45	5037.00
507.91	5057.00
508.37	5012.00
508.82	5057.00
509.28	5049.00
509.74	5131.00
510.19	5053.00
510.65	5099.00
511.11	5127.00
511.56	5110.00
512.02	5128.00
512.48	5092.00
512.93	5082.00
513.39	5069.00
513.85	5059.00
514.30	5046.00
514.76	5024.00
515.22	5011.00
515.67	5043.00
516.13	4984.00
516.59	4888.00
517.04	4889.00
517.50	4801.00
517.95	4844.00
518.41	4978.00
518.87	4962.00
519.32	4998.00
519.78	5024.00
520.24	5058.00
520.69	5160.00
521.15	5121.00
521.60	5139.00
522.06	5123.00
522.52	5161.00
522.97	5113.00
523.43	5114.00
523.88	5177.00
524.34	5197.00
524.80	5207.00
525.25	5216.00
525.71	5159.00
526.16	5079.00
526.62	5082.00
527.07	5003.00
527.53	5044.00
527.99	5153.00
528.44	5265.00
528.90	5319.00
529.35	5268.00
529.81	5303.00
530.26	5320.00
530.72	5282.00
531.17	5338.00
531.63	5284.00
532.09	5192.00
532.54	5203.00
533.00	5156.00
533.45	5168.00
533.91	5189.00
534.36	5279.00
534.82	5284.00
535.27	5258.00
535.73	5325.00
536.18	5292.00
536.64	5249.00
537.09	5280.00
537.55	5295.00
538.00	5303.00
538.46	5248.00
538.91	5313.00
539.37	5323.00
539.82	5212.00
540.28	5176.00
540.73	5242.00
541.19	5220.00
541.64	5250.00
542.10	5305.00
542.55	5265.00
543.01	5309.00
543.46	5320.00
543.92	5291.00
544.37	5318.00
544.83	5301.00
545.28	5298.00
545.74	5309.00
546.19	5323.00
546.64	5328.00
547.10	5316.00
547.55	5369.00
548.01	5316.00
548.46	5279.00
548.92	5415.00
549.37	5361.00
549.83	5338.00
550.28	5347.00
550.73	5382.00
551.19	5373.00
551.64	5377.00
552.10	5405.00
552.55	5326.00
553.00	5291.00
553.46	5315.00
553.91	5381.00
554.37	5405.00
554.82	5340.00
555.28	5397.00
555.73	5364.00
556.18	5347.00
556.64	5361.00
557.09	5309.00
557.54	5309.00
558.00	5295.00
558.45	5314.00
558.91	5276.00
559.36	5294.00
559.81	5285.00
560.27	5347.00
560.72	5326.00
561.17	5343.00
561.63	5374.00
562.08	5341.00
562.54	5330.00
562.99	5377.00
563.44	5420.00
563.90	5325.00
564.35	5323.00
564.80	5342.00
565.26	5345.00
565.71	5332.00
566.16	5328.00
566.62	5357.00
567.07	5324.00
567.52	5354.00
567.98	5363.00
568.43	5305.00
568.88	5269.00
569.34	5348.00
569.79	5348.00
570.24	5272.00
570.69	5321.00
571.15	5309.00
571.60	5315.00
572.05	5271.00
572.51	5348.00
572.96	5459.00
573.41	5442.00
573.86	5392.00
574.32	5361.00
574.77	5349.00
575.22	5322.00
575.68	5302.00
576.13	5314.00
576.58	5378.00
577.03	5315.00
577.49	5375.00
577.94	5342.00
578.39	5349.00
578.84	5349.00
579.30	5327.00
579.75	5402.00
580.20	5373.00
580.65	5445.00
581.11	5374.00
581.56	5468.00
582.01	5409.00
582.46	5443.00
582.92	5368.00
583.37	5469.00
583.82	5420.00
584.27	5431.00
584.72	5422.00
585.18	5447.00
585.63	5359.00
586.08	5426.00
586.53	5338.00
586.98	5414.00
587.44	5394.00
587.89	5403.00
588.34	5268.00
588.79	5151.00
589.24	5166.00
589.70	5095.00
590.15	5249.00
590.60	5251.00
591.05	5305.00
591.50	5261.00
591.96	5316.00
592.41	5357.00
592.86	5301.00
593.31	5336.00
593.76	5325.00
594.21	5311.00
594.66	5314.00
595.12	5333.00
595.57	5348.00
596.02	5345.00
596.47	5348.00
596.92	5306.00
597.37	5309.00
597.82	5367.00
598.28	5378.00
598.73	5362.00
599.18	5375.00
599.63	5423.00
600.08	5455.00
600.53	5317.00
600.98	5353.00
601.43	5360.00
601.88	5385.00
602.34	5385.00
602.79	5369.00
603.24	5420.00
603.69	5473.00
604.14	5431.00
604.59	5448.00
605.04	5466.00
605.49	5471.00
605.94	5436.00
606.39	5433.00
606.84	5490.00
607.30	5469.00
607.75	5468.00
608.20	5476.00
608.65	5468.00
609.10	5452.00
609.55	5441.00
610.00	5465.00
610.45	5454.00
610.90	5379.00
611.35	5453.00
611.80	5468.00
612.25	5426.00
612.70	5418.00
613.15	5395.00
613.60	5432.00
614.05	5387.00
614.50	5395.00
614.95	5373.00
615.40	5380.00
615.85	5417.00
616.30	5360.00
616.75	5344.00
617.20	5338.00
617.65	5398.00
618.10	5422.00
618.55	5481.00
619.00	5522.00
619.45	5407.00
619.90	5476.00
620.35	5527.00
620.80	5440.00
621.25	5457.00
621.70	5501.00
622.15	5404.00
622.60	5425.00
623.05	5371.00
623.50	5453.00
623.95	5394.00
624.40	5402.00
624.85	5405.00
625.30	5396.00
625.75	5348.00
626.20	5406.00
626.65	5376.00
627.10	5339.00
627.55	5377.00
627.99	5297.00
628.44	5347.00
628.89	5319.00
629.34	5370.00
629.79	5373.00
630.24	5290.00
630.69	5344.00
631.14	5365.00
631.59	5360.00
632.04	5392.00
632.49	5361.00
632.94	5484.00
633.38	5414.00
633.83	5397.00
634.28	5468.00
634.73	5444.00
635.18	5466.00
635.63	5482.00
636.08	5493.00
636.53	5447.00
636.97	5500.00
637.42	5530.00
637.87	5501.00
638.32	5522.00
638.77	5557.00
639.22	5515.00
639.67	5507.00
640.11	5494.00
640.56	5498.00
641.01	5418.00
641.46	5477.00
641.91	5467.00
642.36	5490.00
642.81	5554.00
643.25	5578.00
643.70	5505.00
644.15	5543.00
644.60	5577.00
645.05	5471.00
645.49	5483.00
645.94	5456.00
646.39	5493.00
646.84	5444.00
647.29	5448.00
647.73	5437.00
648.18	5421.00
648.63	5411.00
649.08	5466.00
649.53	5429.00
649.97	5357.00
650.42	5471.00
650.87	5472.00
651.32	5480.00
651.77	5491.00
652.21	5471.00
652.66	5483.00
653.11	5472.00
653.56	5484.00
654.00	5480.00
654.45	5457.00
654.90	5399.00
655.35	5276.00
655.79	5221.00
656.24	5017.00
656.69	5061.00
657.14	5164.00
657.58	5302.00
658.03	5430.00
658.48	5498.00
658.92	5422.00
659.37	5489.00
659.82	5453.00
660.27	5479.00
660.71	5503.00
661.16	5474.00
661.61	5554.00
662.05	5585.00
662.50	5591.00
662.95	5545.00
663.39	5471.00
663.84	5517.00
664.29	5576.00
664.74	5516.00
665.18	5626.00
665.63	5526.00
666.08	5587.00
666.52	5522.00
666.97	5511.00
667.42	5565.00
667.86	5555.00
668.31	5556.00
668.76	5565.00
669.20	5539.00
669.65	5562.00
670.09	5541.00
670.54	5581.00
670.99	5560.00
671.43	5544.00
671.88	5441.00
672.33	5493.00
672.77	5472.00
673.22	5536.00
673.66	5521.00
674.11	5574.00
674.56	5490.00
675.00	5514.00
675.45	5494.00
675.90	5511.00
676.34	5537.00
676.79	5507.00
677.23	5523.00
677.68	5476.00
678.12	5459.00
678.57	5464.00
679.02	5519.00
679.46	5563.00
679.91	5495.00
680.35	5489.00
680.80	5476.00
681.25	5492.00
681.69	5518.00
682.14	5516.00
682.58	5473.00
683.03	5457.00
683.47	5482.00
683.92	5424.00
684.36	5441.00
684.81	5452.00
685.25	5456.00
685.70	5406.00
686.15	5342.00
686.59	5185.00
687.04	4829.00
687.48	4624.00
687.93	4692.00
688.37	4953.00
688.82	4946.00
689.26	4992.00
689.71	4961.00
690.15	4988.00
690.60	5063.00
691.04	5109.00
691.49	5143.00
691.93	5269.00
692.38	5204.00
692.82	5196.00
693.27	5194.00
693.71	5149.00
694.16	5125.00
694.60	5101.00
695.04	5133.00
695.49	5192.00
695.93	5163.00
696.38	5266.00
696.82	5325.00
697.27	5311.00
697.71	5300.00
698.16	5268.00
698.60	5227.00
699.04	5208.00
699.49	5224.00
699.93	5206.00
700.38	5158.00
700.82	5170.00
701.27	5205.00
701.71	5212.00
702.15	5190.00
702.60	5091.00
703.04	5196.00
703.49	5221.00
703.93	5223.00
704.37	5287.00
704.82	5254.00
705.26	5235.00
705.71	5281.00
706.15	5239.00
706.59	5270.00
707.04	5250.00
707.48	5257.00
707.93	5282.00
708.37	5276.00
708.81	5258.00
709.26	5274.00
709.70	5289.00
710.14	5287.00
710.59	5300.00
711.03	5192.00
711.47	5241.00
711.92	5251.00
712.36	5219.00
712.80	5261.00
713.25	5206.00
713.69	5257.00
714.13	5275.00
714.58	5214.00
715.02	5150.00
715.46	5181.00
715.91	5118.00
716.35	5077.00
716.79	4840.00
717.24	4768.00
717.68	4663.00
718.12	4595.00
718.57	4569.00
719.01	4510.00
719.45	4479.00
719.89	4483.00
720.34	4413.00
720.78	4541.00
721.22	4767.00
721.66	4892.00
722.11	4971.00
722.55	4908.00
722.99	4833.00
723.44	4697.00
723.88	4633.00
724.32	4574.00
724.76	4576.00
725.21	4577.00
725.65	4622.00
726.09	4688.00
726.53	4707.00
726.97	4697.00
727.42	4669.00
727.86	4656.00
728.30	4670.00
728.74	4685.00
729.19	4675.00
729.63	4599.00
730.07	4693.00
730.51	4659.00
730.95	4697.00
731.40	4707.00
731.84	4787.00
732.28	4826.00
732.72	4887.00
733.16	4912.00
733.61	4914.00
734.05	4938.00
734.49	4934.00
734.93	4947.00
735.37	4975.00
735.81	4952.00
736.26	4908.00
736.70	4928.00
737.14	4922.00
737.58	4961.00
738.02	4987.00
738.46	4955.00
738.90	4884.00
739.35	4905.00
739.79	4934.00
740.23	4941.00
740.67	4972.00
741.11	4988.00
741.55	4888.00
741.99	4922.00
742.44	4956.00
742.88	5031.00
743.32	4976.00
743.76	4968.00
744.20	5012.00
744.64	4997.00
745.08	4992.00
745.52	5023.00
745.96	5042.00
746.40	4973.00
746.84	5018.00
747.29	5027.00
747.73	4975.00
748.17	5041.00
748.61	5005.00
749.05	5026.00
749.49	4988.00
749.93	4954.00
750.37	5033.00
750.81	5026.00
751.25	4954.00
751.69	4960.00
752.13	4994.00
752.57	4975.00
753.01	5015.00
753.45	5024.00
753.89	4972.00
754.33	5014.00
754.77	5022.00
755.21	5022.00
755.65	5033.00
756.09	5013.00
756.53	5022.00
756.97	4982.00
757.41	4967.00
757.85	4968.00
758.29	4953.00
758.73	4891.00
759.17	4682.00
759.61	4163.00
760.05	3509.00
760.49	3122.00
760.93	3020.00
761.37	3186.00
761.81	3644.00
762.25	3843.00
762.69	3674.00
763.13	3501.00
763.57	3499.00
764.01	3607.00
764.45	3720.00
764.89	3865.00
765.33	4045.00
765.77	4184.00
766.21	4303.00
766.65	4427.00
767.09	4577.00
767.53	4726.00
767.96	4715.00
768.40	4777.00
768.84	4810.00
769.28	4787.00
769.72	4804.00
770.16	4858.00
770.60	4857.00
771.04	4894.00
771.48	4855.00
771.92	4903.00
772.35	4878.00
772.79	4914.00
773.23	4891.00
773.67	4880.00
774.11	4874.00
774.55	4863.00
774.99	4815.00
775.43	4831.00
775.86	4849.00
776.30	4866.00
776.74	4915.00
777.18	4901.00
777.62	4863.00
778.06	4864.00
778.50	4849.00
778.93	4838.00
779.37	4803.00
779.81	4822.00
780.25	4808.00
780.69	4790.00
781.12	4747.00
781.56	4818.00
782.00	4806.00
782.44	4856.00
782.88	4826.00
783.32	4874.00
783.75	4791.00
784.19	4779.00
784.63	4809.00
785.07	4744.00
785.50	4759.00
785.94	4765.00
786.38	4744.00
786.82	4720.00
787.26	4686.00
787.69	4738.00
788.13	4705.00
788.57	4720.00
789.01	4785.00
789.44	4709.00
789.88	4656.00
790.32	4674.00
790.76	4667.00
791.19	4625.00
791.63	4551.00
792.07	4589.00
792.51	4577.00
792.94	4575.00
793.38	4566.00
793.82	4545.00
794.25	4643.00
794.69	4624.00
795.13	4616.00
795.56	4624.00
796.00	4583.00
796.44	4500.00
796.88	4507.00
797.31	4562.00
797.75	4527.00
798.19	4534.00
798.62	4538.00
799.06	4566.00
799.50	4607.00
799.93	4494.00
800.37	4500.00
800.81	4552.00
801.24	4594.00
801.68	4512.00
802.12	4485.00
802.55	4473.00
802.99	4489.00
803.43	4503.00
803.86	4522.00
804.30	4483.00
804.73	4513.00
805.17	4460.00
805.61	4535.00
806.04	4560.00
806.48	4529.00
806.92	4533.00
807.35	4481.00
807.79	4518.00
808.22	4485.00
808.66	4439.00
809.10	4478.00
809.53	4384.00
809.97	4408.00
810.40	4445.00
810.84	4394.00
811.27	4376.00
811.71	4358.00
812.15	4405.00
812.58	4329.00
813.02	4218.00
813.45	4187.00
813.89	4118.00
814.32	4152.00
814.76	4040.00
815.19	4042.00
815.63	4028.00
816.07	3957.00
816.50	3920.00
816.94	3955.00
817.37	4038.00
817.81	3958.00
818.24	3956.00
818.68	4029.00
819.11	4042.00
819.55	4022.00
819.98	3988.00
820.42	4117.00
820.85	4184.00
821.29	4204.00
821.72	4145.00
822.16	4104.00
822.59	3893.00
823.03	3739.00
823.46	3846.00
823.90	4044.00
824.33	4075.00
824.77	4233.00
825.20	4257.00
825.63	4123.00
826.07	4157.00
826.50	4190.00
826.94	4202.00
827.37	4036.00
827.81	3991.00
828.24	4012.00
828.68	4036.00
829.11	4045.00
829.54	4075.00
829.98	4094.00
830.41	4106.00
830.85	4156.00
831.28	4137.00
831.71	4093.00
832.15	4075.00
832.58	4130.00
833.02	4124.00
833.45	4108.00
833.88	4090.00
834.32	4152.00
834.75	4202.00
835.19	4168.00
835.62	4162.00
836.05	4200.00
836.49	4164.00
836.92	4171.00
837.35	4161.00
837.79	4183.00
838.22	4242.00
838.66	4186.00
839.09	4241.00
839.52	4255.00
839.96	4279.00
840.39	4256.00
840.82	4248.00
841.26	4201.00
841.69	4171.00
842.12	4195.00
842.56	4178.00
842.99	4193.00
843.42	4192.00
843.85	4187.00
844.29	4270.00
844.72	4209.00
845.15	4215.00
845.59	4244.00
846.02	4211.00
846.45	4238.00
846.88	4225.00
847.32	4204.00
847.75	4199.00
848.18	4221.00
848.62	4125.00
849.05	4164.00
849.48	4069.00
849.91	4013.00
850.35	4040.00
850.78	4177.00
851.21	4144.00
851.64	4150.00
852.08	4189.00
852.51	4202.00
852.94	4209.00
853.37	4172.00
853.80	3976.00
854.24	3841.00
854.67	3947.00
855.10	4005.00
855.53	4117.00
855.97	4110.00
856.40	4106.00
856.83	4110.00
857.26	4136.00
857.69	4203.00
858.13	4195.00
858.56	4137.00
858.99	4176.00
859.42	4176.00
859.85	4183.00
860.28	4181.00
860.72	4194.00
861.15	4156.00
861.58	4182.00
862.01	4149.00
862.44	4063.00
862.87	4123.00
863.30	4135.00
863.74	4111.00
864.17	4130.00
864.60	4128.00
865.03	4116.00
865.46	4048.00
865.89	3911.00
866.32	3893.00
866.75	3983.00
867.19	4044.00
867.62	4074.00
868.05	4141.00
868.48	4091.00
868.91	4081.00
869.34	4064.00
869.77	4064.00
870.20	4082.00
870.63	4065.00
871.06	4063.00
871.49	4068.00
871.93	4078.00
872.36	4053.00
872.79	4063.00
873.22	4044.00
873.65	4070.00
874.08	4077.00
874.51	4074.00
874.94	4115.00
875.37	4043.00
875.80	4116.00
876.23	4107.00
876.66	4068.00
877.09	3990.00
877.52	4052.00
877.95	4025.00
878.38	4007.00
878.81	3981.00
879.24	4043.00
879.67	4065.00
880.10	4011.00
880.53	4003.00
880.96	3982.00
881.39	4090.00
881.82	4063.00
882.25	4056.00
882.68	4025.00
883.11	4071.00
883.54	4047.00
883.97	4066.00
884.40	4048.00
884.83	4035.00
885.26	4040.00
885.69	4033.00
886.12	3991.00
886.55	4000.00
886.98	3979.00
887.40	3984.00
887.83	4031.00
888.26	4043.00
888.69	4011.00
889.12	4025.00
889.55	4004.00
889.98	4046.00
890.41	4037.00
890.84	4038.00
891.27	4015.00
891.70	4012.00
892.12	3975.00
892.55	3939.00
892.98	3898.00
893.41	3921.00
893.84	3867.00
894.27	3867.00
894.70	3830.00
895.13	3792.00
895.55	3767.00
895.98	3730.00
896.41	3691.00
896.84	3684.00
897.27	3650.00
897.70	3713.00
898.13	3686.00
898.55	3486.00
898.98	3489.00
899.41	3659.00
899.84	3605.00
900.27	3559.00
900.70	3590.00
901.12	3587.00
901.55	3616.00
901.98	3596.00
902.41	3570.00
902.84	3683.00
903.26	3785.00
903.69	3790.00
904.12	3783.00
904.55	3795.00
904.97	3776.00
905.40	3808.00
905.83	3662.00
906.26	3657.00
906.69	3574.00
907.11	3574.00
907.54	3521.00
907.97	3549.00
908.40	3542.00
908.82	3555.00
909.25	3547.00
909.68	3522.00
910.10	3535.00
910.53	3560.00
910.96	3594.00
911.39	3583.00
911.81	3577.00
912.24	3603.00
912.67	3458.00
913.09	3451.00
913.52	3486.00
913.95	3583.00
914.38	3555.00
914.80	3469.00
915.23	3432.00
915.66	3536.00
916.08	3600.00
916.51	3569.00
916.94	3496.00
917.36	3453.00
917.79	3534.00
918.22	3573.00
918.64	3626.00
919.07	3568.00
919.50	3618.00
919.92	3687.00
920.35	3629.00
920.78	3574.00
921.20	3525.00
921.63	3626.00
922.05	3605.00
922.48	3573.00
922.91	3559.00
923.33	3553.00
923.76	3551.00
924.18	3512.00
924.61	3565.00
925.04	3540.00
925.46	3521.00
925.89	3538.00
926.31	3569.00
926.74	3475.00
927.17	3427.00
927.59	3327.00
928.02	3274.00
928.44	3256.00
928.87	3230.00
929.29	3183.00
929.72	3140.00
930.15	3099.00
930.57	3082.00
931.00	3001.00
931.42	2965.00
931.85	2926.00
932.27	2938.00
932.70	2902.00
933.12	2837.00
933.55	2834.00
933.97	2837.00
934.40	2926.00
934.82	2872.00
935.25	2824.00
935.67	2879.00
936.10	2843.00
936.52	2803.00
936.95	2821.00
937.37	2809.00
937.80	2843.00
938.22	2915.00
938.65	2982.00
939.07	2999.00
939.50	2935.00
939.92	2932.00
940.35	2897.00
940.77	2901.00
941.19	2899.00
941.62	2911.00
942.04	2862.00
942.47	2829.00
942.89	2881.00
943.32	2825.00
943.74	2783.00
944.16	2843.00
944.59	2863.00
945.01	2827.00
945.44	2819.00
945.86	2859.00
946.29	2865.00
946.71	2869.00
947.13	2878.00
947.56	2844.00
947.98	2898.00
948.40	2931.00
948.83	2862.00
949.25	2817.00
949.68	2866.00
950.10	2967.00
950.52	2997.00
950.95	2924.00
951.37	2846.00
951.79	2870.00
952.22	2934.00
952.64	2946.00
953.06	2963.00
953.49	2932.00
953.91	2927.00
954.33	2942.00
954.76	2900.00
955.18	2959.00
955.60	2955.00
956.03	2934.00
956.45	3032.00
956.87	3062.00
957.30	3035.00
957.72	3014.00
958.14	2968.00
958.56	2936.00
958.99	2990.00
959.41	3014.00
959.83	3022.00
960.26	3078.00
960.68	3081.00
961.10	3068.00
961.52	3050.00
961.95	3088.00
962.37	3117.00
962.79	3082.00
963.21	3059.00
963.64	3097.00
964.06	3110.00
964.48	3176.00
964.90	3146.00
965.32	3104.00
965.75	3088.00
966.17	3177.00
966.59	3225.00
967.01	3249.00
967.44	3236.00
967.86	3271.00
968.28	3256.00
968.70	3282.00
969.12	3268.00
969.54	3265.00
969.97	3333.00
970.39	3311.00
970.81	3286.00
971.23	3292.00
971.65	3212.00
972.07	3263.00
972.50	3210.00
972.92	3199.00
973.34	3230.00
973.76	3231.00
974.18	3233.00
974.60	3174.00
975.02	3208.00
975.45	3185.00
975.87	3227.00
976.29	3244.00
976.71	3254.00
977.13	3244.00
977.55	3220.00
977.97	3213.00
978.39	3234.00
978.81	3258.00
979.24	3233.00
979.66	3281.00
980.08	3299.00
980.50	3280.00
980.92	3277.00
981.34	3280.00
981.76	3243.00
982.18	3281.00
982.60	3302.00
983.02	3318.00
983.44	3295.00
983.86	3262.00
984.28	3278.00
984.70	3292.00
985.12	3274.00
985.54	3280.00
985.96	3285.00
986.38	3255.00
986.80	3274.00
987.23	3307.00
987.65	3277.00
988.07	3279.00
988.49	3299.00
988.91	3273.00
989.33	3277.00
989.74	3310.00
990.16	3257.00
990.58	3251.00
991.00	3264.00
991.42	3256.00
991.84	3239.00
992.26	3280.00
992.68	3259.00
993.10	3278.00
993.52	3250.00
993.94	3265.00
994.36	3240.00
994.78	3226.00
995.20	3266.00
995.62	3258.00
996.04	3197.00
996.46	3264.00
996.88	3221.00
997.30	3261.00
997.71	3251.00
998.13	3266.00
998.55	3267.00
998.97	3256.00
999.39	3256.00
999.81	3271.00
1000.23	3255.00
1000.65	3247.00
1001.07	3265.00
1001.49	3242.00
1001.90	3265.00
1002.32	3235.00
1002.74	3216.00
1003.16	3226.00
1003.58	3235.00
1004.00	3223.00
1004.42	3237.00
1004.83	3203.00
1005.25	3200.00
1005.67	3225.00
1006.09	3246.00
1006.51	3193.00
1006.92	3212.00
1007.34	3212.00
1007.76	3232.00
1008.18	3202.00
1008.60	3202.00
1009.02	3212.00
1009.43	3214.00
1009.85	3206.00
1010.27	3187.00
1010.69	3212.00
1011.10	3213.00
1011.52	3204.00
1011.94	3170.00
1012.36	3155.00
1012.78	3189.00
1013.19	3168.00
1013.61	3146.00
1014.03	3166.00
1014.45	3169.00
1014.86	3156.00
1015.28	3182.00
1015.70	3139.00
1016.12	3132.00
1016.53	3141.00
1016.95	3137.00
1017.37	3148.00
1017.78	3124.00
1018.20	3104.00
1018.62	3128.00
1019.03	3110.00
1019.45	3098.00
1019.87	3127.00
1020.29	3093.00
1020.70	3081.00
1021.12	3095.00
1021.54	3059.00
1021.95	3091.00
1022.37	3077.00
1022.79	3074.00
1023.20	3084.00
1023.62	3055.00
1024.04	3054.00
1024.45	3060.00
1024.87	3072.00
1025.28	3048.00
1025.70	3054.00
1026.12	3045.00
1026.53	3031.00
1026.95	3028.00
1027.37	3029.00
1027.78	3037.00
1028.20	3028.00
1028.61	3028.00
1029.03	3019.00
1029.45	3023.00
1029.86	3024.00
1030.28	3003.00
1030.69	3009.00
1031.11	2992.00
1031.53	2984.00
1031.94	2995.00
1032.36	2974.00
1032.77	2980.00
1033.19	2989.00
1033.60	2960.00
1034.02	2952.00
1034.43	2920.00
1034.85	2954.00
1035.27	2952.00
1035.68	2942.00
1036.10	2958.00
1036.51	2936.00
1036.93	2941.00
1037.34	2938.00
1037.76	2923.00
1038.17	2935.00
1038.59	2929.00
1039.00	2941.00
1039.42	2932.00
1039.83	2917.00
1040.25	2902.00
1040.66	2916.00
1041.08	2910.00
1041.49	2898.00
1041.91	2911.00
1042.32	2889.00
1042.73	2873.00
1043.15	2875.00
1043.56	2878.00
1043.98	2896.00
1044.39	2864.00
1044.81	2866.00
1045.22	2871.00
1045.64	2866.00
1046.05	2847.00
1046.46	2870.00
1046.88	2860.00
1047.29	2848.00
1047.71	2844.00
1048.12	2852.00
1048.53	2847.00
1048.95	2842.00
1049.36	2843.00
1049.78	2840.00
1050.19	2852.00
1050.60	2815.00
1051.02	2831.00
1051.43	2810.00
1051.85	2816.00
1052.26	2806.00
1052.67	2812.00
1053.09	2820.00
1053.50	2821.00
1053.91	2813.00
1054.33	2800.00
1054.74	2797.00
1055.15	2777.00
1055.57	2787.00
1055.98	2784.00
1056.39	2768.00
1056.81	2791.00
1057.22	2782.00
1057.63	2776.00
1058.05	2765.00
1058.46	2767.00
1058.87	2773.00
1059.28	2775.00
1059.70	2783.00
1060.11	2759.00
1060.52	2752.00
1060.94	2768.00
1061.35	2743.00
1061.76	2751.00
1062.17	2760.00
1062.59	2755.00
1063.00	2747.00
1063.41	2753.00
1063.82	2749.00
1064.24	2735.00
1064.65	2757.00
1065.06	2751.00
1065.47	2735.00
1065.89	2740.00
1066.30	2727.00
1066.71	2743.00
1067.12	2730.00
1067.53	2723.00
1067.95	2716.00
1068.36	2720.00
1068.77	2708.00
1069.18	2717.00
1069.59	2719.00
1070.00	2715.00
1070.42	2720.00
1070.83	2708.00
1071.24	2714.00
1071.65	2700.00
1072.06	2698.00
1072.47	2689.00
1072.89	2708.00
1073.30	2698.00
1073.71	2721.00
1074.12	2702.00
1074.53	2706.00
1074.94	2699.00
1075.35	2704.00
1075.77	2690.00
1076.18	2681.00
1076.59	2696.00
1077.00	2681.00
1077.41	2683.00
1077.82	2690.00
1078.23	2675.00
1078.64	2682.00
1079.05	2686.00
1079.46	2695.00
1079.87	2675.00
1080.29	2667.00
1080.70	2673.00
1081.11	2677.00
1081.52	2666.00
1081.93	2662.00
1082.34	2662.00
1082.75	2677.00
1083.16	2668.00
1083.57	2670.00
1083.98	2663.00
1084.39	2662.00
1084.80	2661.00
1085.21	2648.00
1085.62	2661.00
1086.03	2676.00
1086.44	2659.00
1086.85	2663.00
1087.26	2644.00
1087.67	2654.00
1088.08	2659.00
1088.49	2651.00
1088.90	2653.00
1089.31	2641.00
1089.72	2658.00
1090.13	2648.00
1090.54	2656.00
1090.95	2646.00
1091.36	2645.00
1091.77	2647.00
1092.18	2644.00
1092.59	2645.00
1093.00	2639.00
1093.40	2645.00
1093.81	2635.00
1094.22	2640.00
1094.63	2627.00
1095.04	2634.00
1095.45	2633.00
1095.86	2631.00
1096.27	2625.00
1096.68	2634.00
1097.09	2631.00
1097.50	2626.00
1097.90	2619.00
1098.31	2629.00
1098.72	2632.00
1099.13	2612.00
1099.54	2630.00
1099.95	2617.00
1100.36	2625.00
1100.76	2617.00
1101.17	2614.00
1101.58	2624.00
1101.99	2612.00
1102.40	2617.00
1102.81	2609.00
1103.22	2615.00
1103.62	2615.00
1104.03	2617.00
1104.44	2613.00
1104.85	2621.00
1105.26	2609.00
1105.66	2604.00
1106.07	2604.00
1106.48	2612.00
1106.89	2603.00
1107.30	2605.00
1107.70	2605.00
1108.11	2609.00
1108.52	2604.00
1108.93	2602.00
1109.33	2607.00
1109.74	2604.00
1110.15	2600.00
1110.56	2612.00
1110.96	2597.00
1111.37	2598.00
1111.78	2606.00
1112.19	2603.00
1112.59	2606.00
1113.00	2612.00
1113.41	2600.00
1113.81	2604.00
1114.22	2600.00
1114.63	2572.00
1115.03	2571.00
1115.44	2569.00
1115.85	2572.00
>>>>>End Processed Spectral Data<<<<<
