SpectraSuite Data File
++++++++++++++++++++++++++++++++++++
Date: Thu Aug 05 09:52:32 EEST 2021
User: CanSEE
Dark Spectrum Present: No
Reference Spectrum Present: No
Number of Sampled Component Spectra: 1
Spectrometers: MAYP112785
Integration Time (usec): 10000 (MAYP112785)
Spectra Averaged: 1 (MAYP112785)
Boxcar Smoothing: 0 (MAYP112785)
Correct for Electrical Dark: No (MAYP112785)
Strobe/Lamp Enabled: No (MAYP112785)
Correct for Detector Non-linearity: No (MAYP112785)
Correct for Stray Light: No (MAYP112785)
Number of Pixels in Processed Spectrum: 2068
>>>>>Begin Processed Spectral Data<<<<<
198.35	3437.00
198.82	2474.00
199.30	2577.00
199.77	2556.00
200.24	2585.00
200.71	2580.00
201.18	2582.00
201.65	2589.00
202.13	2588.00
202.60	2585.00
203.07	2594.00
203.54	2587.00
204.01	2582.00
204.48	2589.00
204.96	2576.00
205.43	2580.00
205.90	2586.00
206.37	2577.00
206.84	2578.00
207.31	2578.00
207.78	2583.00
208.26	2583.00
208.73	2583.00
209.20	2586.00
209.67	2583.00
210.14	2575.00
210.61	2585.00
211.08	2587.00
211.56	2586.00
212.03	2582.00
212.50	2581.00
212.97	2586.00
213.44	2575.00
213.91	2577.00
214.38	2580.00
214.85	2578.00
215.33	2585.00
215.80	2583.00
216.27	2575.00
216.74	2585.00
217.21	2588.00
217.68	2577.00
218.15	2577.00
218.62	2584.00
219.09	2584.00
219.57	2582.00
220.04	2582.00
220.51	2585.00
220.98	2581.00
221.45	2583.00
221.92	2584.00
222.39	2583.00
222.86	2582.00
223.33	2592.00
223.80	2584.00
224.27	2581.00
224.74	2592.00
225.22	2579.00
225.69	2579.00
226.16	2588.00
226.63	2581.00
227.10	2580.00
227.57	2587.00
228.04	2582.00
228.51	2585.00
228.98	2584.00
229.45	2581.00
229.92	2587.00
230.39	2579.00
230.86	2578.00
231.33	2579.00
231.80	2588.00
232.27	2580.00
232.75	2576.00
233.22	2583.00
233.69	2586.00
234.16	2585.00
234.63	2583.00
235.10	2583.00
235.57	2579.00
236.04	2580.00
236.51	2588.00
236.98	2588.00
237.45	2578.00
237.92	2580.00
238.39	2582.00
238.86	2583.00
239.33	2640.00
239.80	2577.00
240.27	2588.00
240.74	2584.00
241.21	2582.00
241.68	2577.00
242.15	2583.00
242.62	2578.00
243.09	2584.00
243.56	2582.00
244.03	2587.00
244.50	2581.00
244.97	2585.00
245.44	2585.00
245.91	2583.00
246.38	2581.00
246.85	2587.00
247.32	2582.00
247.79	2587.00
248.26	2593.00
248.73	2586.00
249.20	2583.00
249.67	2585.00
250.14	2586.00
250.61	2582.00
251.08	2582.00
251.55	2593.00
252.02	2584.00
252.49	2583.00
252.96	2578.00
253.43	2584.00
253.90	2583.00
254.37	2589.00
254.84	2580.00
255.31	2581.00
255.77	2580.00
256.24	2582.00
256.71	2582.00
257.18	2583.00
257.65	2584.00
258.12	2579.00
258.59	2576.00
259.06	2573.00
259.53	2586.00
260.00	2587.00
260.47	2583.00
260.94	2585.00
261.41	2580.00
261.88	2586.00
262.35	2585.00
262.81	2579.00
263.28	2583.00
263.75	2585.00
264.22	2581.00
264.69	2587.00
265.16	2584.00
265.63	2583.00
266.10	2580.00
266.57	2580.00
267.04	2581.00
267.51	2584.00
267.97	2586.00
268.44	2581.00
268.91	2581.00
269.38	2582.00
269.85	2588.00
270.32	2588.00
270.79	2577.00
271.26	2581.00
271.73	2577.00
272.19	2584.00
272.66	2582.00
273.13	2584.00
273.60	2582.00
274.07	2579.00
274.54	2585.00
275.01	2587.00
275.48	2583.00
275.94	2585.00
276.41	2584.00
276.88	2588.00
277.35	2583.00
277.82	2583.00
278.29	2591.00
278.76	2596.00
279.22	2585.00
279.69	2586.00
280.16	2580.00
280.63	2581.00
281.10	2585.00
281.57	2583.00
282.04	2582.00
282.50	2588.00
282.97	2583.00
283.44	2585.00
283.91	2583.00
284.38	2587.00
284.85	2580.00
285.31	2586.00
285.78	2583.00
286.25	2588.00
286.72	2581.00
287.19	2583.00
287.65	2581.00
288.12	2585.00
288.59	2578.00
289.06	2588.00
289.53	2574.00
289.99	2586.00
290.46	2593.00
290.93	2583.00
291.40	2577.00
291.87	2583.00
292.33	2585.00
292.80	2578.00
293.27	2581.00
293.74	2583.00
294.21	2583.00
294.67	2580.00
295.14	2582.00
295.61	2584.00
296.08	2580.00
296.54	2580.00
297.01	2587.00
297.48	2588.00
297.95	2583.00
298.42	2583.00
298.88	2581.00
299.35	2588.00
299.82	2582.00
300.29	2588.00
300.75	2583.00
301.22	2581.00
301.69	2589.00
302.16	2588.00
302.62	2581.00
303.09	2583.00
303.56	2584.00
304.03	2584.00
304.49	2586.00
304.96	2585.00
305.43	2589.00
305.90	2593.00
306.36	2587.00
306.83	2587.00
307.30	2598.00
307.76	2594.00
308.23	2597.00
308.70	2600.00
309.17	2595.00
309.63	2589.00
310.10	2599.00
310.57	2606.00
311.03	2600.00
311.50	2618.00
311.97	2612.00
312.44	2614.00
312.90	2616.00
313.37	2631.00
313.84	2615.00
314.30	2625.00
314.77	2611.00
315.24	2629.00
315.70	2620.00
316.17	2648.00
316.64	2638.00
317.10	2653.00
317.57	2645.00
318.04	2662.00
318.50	2648.00
318.97	2658.00
319.44	2667.00
319.90	2671.00
320.37	2673.00
320.84	2678.00
321.30	2669.00
321.77	2677.00
322.24	2679.00
322.70	2676.00
323.17	2675.00
323.64	2688.00
324.10	2685.00
324.57	2701.00
325.04	2709.00
325.50	2717.00
325.97	2743.00
326.44	2744.00
326.90	2757.00
327.37	2748.00
327.84	2748.00
328.30	2752.00
328.77	2763.00
329.23	2764.00
329.70	2785.00
330.17	2787.00
330.63	2766.00
331.10	2763.00
331.56	2758.00
332.03	2771.00
332.50	2767.00
332.96	2777.00
333.43	2774.00
333.90	2767.00
334.36	2785.00
334.83	2764.00
335.29	2783.00
335.76	2774.00
336.22	2781.00
336.69	2754.00
337.16	2762.00
337.62	2763.00
338.09	2786.00
338.55	2799.00
339.02	2804.00
339.49	2816.00
339.95	2815.00
340.42	2828.00
340.88	2814.00
341.35	2809.00
341.81	2802.00
342.28	2817.00
342.75	2823.00
343.21	2811.00
343.68	2825.00
344.14	2814.00
344.61	2789.00
345.07	2807.00
345.54	2832.00
346.00	2823.00
346.47	2826.00
346.93	2854.00
347.40	2835.00
347.87	2835.00
348.33	2842.00
348.80	2856.00
349.26	2839.00
349.73	2848.00
350.19	2872.00
350.66	2887.00
351.12	2881.00
351.59	2865.00
352.05	2862.00
352.52	2871.00
352.98	2869.00
353.45	2899.00
353.91	2890.00
354.38	2919.00
354.84	2904.00
355.31	2904.00
355.77	2887.00
356.24	2893.00
356.70	2859.00
357.17	2835.00
357.63	2843.00
358.10	2834.00
358.56	2816.00
359.03	2832.00
359.49	2871.00
359.96	2895.00
360.42	2923.00
360.89	2896.00
361.35	2882.00
361.82	2875.00
362.28	2908.00
362.75	2893.00
363.21	2939.00
363.67	2898.00
364.14	2939.00
364.60	2947.00
365.07	2941.00
365.53	2934.00
366.00	2990.00
366.46	3001.00
366.93	2996.00
367.39	2989.00
367.86	2985.00
368.32	2968.00
368.78	2986.00
369.25	2985.00
369.71	3028.00
370.18	2992.00
370.64	2991.00
371.11	2977.00
371.57	2987.00
372.03	2996.00
372.50	2958.00
372.96	2960.00
373.43	2935.00
373.89	2930.00
374.35	2925.00
374.82	2950.00
375.28	2963.00
375.75	3024.00
376.21	3017.00
376.67	3019.00
377.14	3023.00
377.60	3067.00
378.07	3102.00
378.53	3105.00
378.99	3080.00
379.46	3031.00
379.92	3014.00
380.39	3028.00
380.85	3062.00
381.31	3039.00
381.78	2998.00
382.24	2971.00
382.70	2941.00
383.17	2930.00
383.63	2924.00
384.09	2949.00
384.56	2999.00
385.02	3051.00
385.48	3054.00
385.95	3029.00
386.41	3034.00
386.88	3072.00
387.34	3045.00
387.80	3060.00
388.27	3062.00
388.73	3091.00
389.19	3117.00
389.66	3164.00
390.12	3166.00
390.58	3163.00
391.05	3172.00
391.51	3183.00
391.97	3139.00
392.43	3117.00
392.90	3038.00
393.36	2972.00
393.82	2985.00
394.29	3044.00
394.75	3105.00
395.21	3178.00
395.68	3171.00
396.14	3177.00
396.60	3105.00
397.07	3066.00
397.53	3127.00
397.99	3260.00
398.45	3420.00
398.92	3424.00
399.38	3486.00
399.84	3511.00
400.31	3514.00
400.77	3533.00
401.23	3524.00
401.69	3606.00
402.16	3550.00
402.62	3569.00
403.08	3559.00
403.54	3545.00
404.01	3579.00
404.47	3583.00
404.93	3555.00
405.39	3567.00
405.86	3559.00
406.32	3552.00
406.78	3536.00
407.24	3542.00
407.71	3575.00
408.17	3603.00
408.63	3604.00
409.09	3639.00
409.56	3618.00
410.02	3599.00
410.48	3575.00
410.94	3602.00
411.40	3680.00
411.87	3727.00
412.33	3695.00
412.79	3696.00
413.25	3704.00
413.71	3645.00
414.18	3752.00
414.64	3750.00
415.10	3737.00
415.56	3742.00
416.02	3749.00
416.49	3778.00
416.95	3764.00
417.41	3732.00
417.87	3720.00
418.33	3747.00
418.80	3738.00
419.26	3776.00
419.72	3747.00
420.18	3757.00
420.64	3793.00
421.10	3817.00
421.57	3800.00
422.03	3821.00
422.49	3803.00
422.95	3761.00
423.41	3769.00
423.87	3816.00
424.34	3807.00
424.80	3814.00
425.26	3810.00
425.72	3748.00
426.18	3806.00
426.64	3780.00
427.10	3807.00
427.57	3727.00
428.03	3760.00
428.49	3726.00
428.95	3692.00
429.41	3650.00
429.87	3637.00
430.33	3613.00
430.79	3618.00
431.26	3686.00
431.72	3739.00
432.18	3886.00
432.64	3945.00
433.10	3880.00
433.56	3926.00
434.02	3883.00
434.48	3889.00
434.94	3904.00
435.40	4034.00
435.87	3975.00
436.33	4058.00
436.79	4013.00
437.25	4048.00
437.71	3965.00
438.17	3951.00
438.63	3943.00
439.09	3914.00
439.55	4018.00
440.01	4076.00
440.47	4065.00
440.93	4099.00
441.39	4159.00
441.85	4131.00
442.32	4158.00
442.78	4186.00
443.24	4207.00
443.70	4152.00
444.16	4233.00
444.62	4178.00
445.08	4227.00
445.54	4226.00
446.00	4198.00
446.46	4209.00
446.92	4253.00
447.38	4317.00
447.84	4306.00
448.30	4381.00
448.76	4330.00
449.22	4428.00
449.68	4370.00
450.14	4450.00
450.60	4462.00
451.06	4472.00
451.52	4434.00
451.98	4388.00
452.44	4395.00
452.90	4328.00
453.36	4344.00
453.82	4331.00
454.28	4382.00
454.74	4428.00
455.20	4442.00
455.66	4466.00
456.12	4466.00
456.58	4493.00
457.04	4496.00
457.50	4518.00
457.96	4544.00
458.42	4457.00
458.88	4439.00
459.34	4467.00
459.80	4506.00
460.26	4535.00
460.72	4502.00
461.18	4538.00
461.64	4564.00
462.10	4530.00
462.55	4578.00
463.01	4573.00
463.47	4552.00
463.93	4544.00
464.39	4521.00
464.85	4532.00
465.31	4509.00
465.77	4500.00
466.23	4566.00
466.69	4552.00
467.15	4539.00
467.61	4520.00
468.07	4579.00
468.52	4559.00
468.98	4574.00
469.44	4585.00
469.90	4620.00
470.36	4599.00
470.82	4551.00
471.28	4618.00
471.74	4648.00
472.20	4647.00
472.66	4666.00
473.11	4661.00
473.57	4614.00
474.03	4642.00
474.49	4669.00
474.95	4711.00
475.41	4621.00
475.87	4658.00
476.33	4649.00
476.78	4671.00
477.24	4717.00
477.70	4680.00
478.16	4723.00
478.62	4758.00
479.08	4728.00
479.54	4720.00
479.99	4768.00
480.45	4806.00
480.91	4774.00
481.37	4795.00
481.83	4822.00
482.29	4806.00
482.74	4834.00
483.20	4783.00
483.66	4803.00
484.12	4746.00
484.58	4718.00
485.04	4675.00
485.49	4599.00
485.95	4508.00
486.41	4451.00
486.87	4519.00
487.33	4612.00
487.78	4643.00
488.24	4700.00
488.70	4765.00
489.16	4769.00
489.62	4760.00
490.07	4819.00
490.53	4814.00
490.99	4748.00
491.45	4717.00
491.90	4764.00
492.36	4749.00
492.82	4723.00
493.28	4813.00
493.74	4843.00
494.19	4847.00
494.65	4832.00
495.11	4899.00
495.57	4867.00
496.02	4856.00
496.48	4874.00
496.94	4871.00
497.40	4866.00
497.85	4854.00
498.31	4796.00
498.77	4780.00
499.23	4820.00
499.68	4802.00
500.14	4738.00
500.60	4772.00
501.06	4713.00
501.51	4799.00
501.97	4805.00
502.43	4802.00
502.88	4791.00
503.34	4804.00
503.80	4839.00
504.26	4825.00
504.71	4764.00
505.17	4873.00
505.63	4916.00
506.08	4904.00
506.54	4934.00
507.00	4861.00
507.45	4873.00
507.91	4876.00
508.37	4861.00
508.82	4834.00
509.28	4911.00
509.74	4899.00
510.19	4927.00
510.65	4872.00
511.11	5009.00
511.56	4960.00
512.02	4987.00
512.48	4991.00
512.93	4914.00
513.39	4912.00
513.85	4895.00
514.30	4895.00
514.76	4863.00
515.22	4883.00
515.67	4837.00
516.13	4779.00
516.59	4737.00
517.04	4641.00
517.50	4668.00
517.95	4676.00
518.41	4757.00
518.87	4790.00
519.32	4835.00
519.78	4925.00
520.24	4895.00
520.69	4974.00
521.15	4950.00
521.60	4958.00
522.06	4956.00
522.52	4941.00
522.97	4959.00
523.43	4995.00
523.88	5034.00
524.34	5110.00
524.80	5066.00
525.25	5015.00
525.71	4906.00
526.16	4924.00
526.62	4873.00
527.07	4853.00
527.53	4891.00
527.99	4971.00
528.44	5080.00
528.90	5064.00
529.35	5105.00
529.81	5173.00
530.26	5118.00
530.72	5147.00
531.17	5137.00
531.63	5080.00
532.09	5063.00
532.54	5081.00
533.00	5023.00
533.45	5021.00
533.91	5078.00
534.36	5082.00
534.82	5090.00
535.27	5145.00
535.73	5120.00
536.18	5154.00
536.64	5121.00
537.09	5125.00
537.55	5117.00
538.00	5137.00
538.46	5132.00
538.91	5101.00
539.37	5034.00
539.82	5000.00
540.28	4992.00
540.73	5041.00
541.19	5031.00
541.64	5064.00
542.10	5129.00
542.55	5094.00
543.01	5065.00
543.46	5128.00
543.92	5119.00
544.37	5160.00
544.83	5142.00
545.28	5196.00
545.74	5155.00
546.19	5183.00
546.64	5124.00
547.10	5183.00
547.55	5110.00
548.01	5170.00
548.46	5141.00
548.92	5203.00
549.37	5180.00
549.83	5149.00
550.28	5192.00
550.73	5185.00
551.19	5177.00
551.64	5240.00
552.10	5213.00
552.55	5166.00
553.00	5200.00
553.46	5170.00
553.91	5212.00
554.37	5240.00
554.82	5225.00
555.28	5187.00
555.73	5208.00
556.18	5159.00
556.64	5124.00
557.09	5105.00
557.54	5139.00
558.00	5137.00
558.45	5180.00
558.91	5026.00
559.36	5141.00
559.81	5130.00
560.27	5121.00
560.72	5167.00
561.17	5176.00
561.63	5186.00
562.08	5197.00
562.54	5218.00
562.99	5228.00
563.44	5188.00
563.90	5180.00
564.35	5153.00
564.80	5129.00
565.26	5140.00
565.71	5136.00
566.16	5093.00
566.62	5125.00
567.07	5177.00
567.52	5160.00
567.98	5159.00
568.43	5182.00
568.88	5143.00
569.34	5092.00
569.79	5106.00
570.24	5114.00
570.69	5088.00
571.15	5102.00
571.60	5140.00
572.05	5167.00
572.51	5166.00
572.96	5232.00
573.41	5214.00
573.86	5184.00
574.32	5160.00
574.77	5147.00
575.22	5142.00
575.68	5129.00
576.13	5148.00
576.58	5188.00
577.03	5207.00
577.49	5161.00
577.94	5114.00
578.39	5114.00
578.84	5156.00
579.30	5195.00
579.75	5183.00
580.20	5200.00
580.65	5195.00
581.11	5186.00
581.56	5215.00
582.01	5242.00
582.46	5245.00
582.92	5314.00
583.37	5241.00
583.82	5290.00
584.27	5255.00
584.72	5292.00
585.18	5226.00
585.63	5260.00
586.08	5243.00
586.53	5177.00
586.98	5243.00
587.44	5277.00
587.89	5256.00
588.34	5125.00
588.79	5014.00
589.24	4953.00
589.70	5018.00
590.15	5042.00
590.60	5110.00
591.05	5146.00
591.50	5175.00
591.96	5159.00
592.41	5134.00
592.86	5230.00
593.31	5183.00
593.76	5155.00
594.21	5193.00
594.66	5128.00
595.12	5135.00
595.57	5174.00
596.02	5158.00
596.47	5240.00
596.92	5218.00
597.37	5173.00
597.82	5176.00
598.28	5159.00
598.73	5162.00
599.18	5202.00
599.63	5183.00
600.08	5212.00
600.53	5201.00
600.98	5213.00
601.43	5176.00
601.88	5132.00
602.34	5172.00
602.79	5200.00
603.24	5242.00
603.69	5282.00
604.14	5256.00
604.59	5223.00
605.04	5262.00
605.49	5320.00
605.94	5297.00
606.39	5264.00
606.84	5329.00
607.30	5269.00
607.75	5277.00
608.20	5244.00
608.65	5193.00
609.10	5269.00
609.55	5262.00
610.00	5238.00
610.45	5213.00
610.90	5242.00
611.35	5276.00
611.80	5182.00
612.25	5179.00
612.70	5285.00
613.15	5258.00
613.60	5215.00
614.05	5256.00
614.50	5235.00
614.95	5239.00
615.40	5247.00
615.85	5245.00
616.30	5186.00
616.75	5123.00
617.20	5254.00
617.65	5187.00
618.10	5207.00
618.55	5267.00
619.00	5265.00
619.45	5255.00
619.90	5301.00
620.35	5287.00
620.80	5252.00
621.25	5272.00
621.70	5248.00
622.15	5247.00
622.60	5230.00
623.05	5251.00
623.50	5189.00
623.95	5197.00
624.40	5154.00
624.85	5209.00
625.30	5142.00
625.75	5182.00
626.20	5227.00
626.65	5193.00
627.10	5225.00
627.55	5126.00
627.99	5095.00
628.44	5110.00
628.89	5105.00
629.34	5114.00
629.79	5172.00
630.24	5103.00
630.69	5199.00
631.14	5139.00
631.59	5147.00
632.04	5130.00
632.49	5201.00
632.94	5236.00
633.38	5240.00
633.83	5174.00
634.28	5226.00
634.73	5218.00
635.18	5234.00
635.63	5279.00
636.08	5273.00
636.53	5256.00
636.97	5317.00
637.42	5286.00
637.87	5276.00
638.32	5334.00
638.77	5305.00
639.22	5268.00
639.67	5286.00
640.11	5262.00
640.56	5249.00
641.01	5241.00
641.46	5300.00
641.91	5336.00
642.36	5270.00
642.81	5326.00
643.25	5278.00
643.70	5317.00
644.15	5273.00
644.60	5324.00
645.05	5287.00
645.49	5277.00
645.94	5289.00
646.39	5241.00
646.84	5227.00
647.29	5265.00
647.73	5206.00
648.18	5250.00
648.63	5208.00
649.08	5178.00
649.53	5114.00
649.97	5205.00
650.42	5211.00
650.87	5232.00
651.32	5215.00
651.77	5210.00
652.21	5236.00
652.66	5218.00
653.11	5256.00
653.56	5326.00
654.00	5284.00
654.45	5261.00
654.90	5166.00
655.35	5133.00
655.79	4984.00
656.24	4823.00
656.69	4856.00
657.14	4961.00
657.58	5100.00
658.03	5244.00
658.48	5268.00
658.92	5224.00
659.37	5305.00
659.82	5299.00
660.27	5283.00
660.71	5306.00
661.16	5328.00
661.61	5284.00
662.05	5319.00
662.50	5315.00
662.95	5286.00
663.39	5269.00
663.84	5314.00
664.29	5303.00
664.74	5249.00
665.18	5319.00
665.63	5325.00
666.08	5299.00
666.52	5310.00
666.97	5248.00
667.42	5261.00
667.86	5253.00
668.31	5251.00
668.76	5310.00
669.20	5306.00
669.65	5308.00
670.09	5293.00
670.54	5319.00
670.99	5286.00
671.43	5281.00
671.88	5212.00
672.33	5273.00
672.77	5273.00
673.22	5290.00
673.66	5228.00
674.11	5254.00
674.56	5259.00
675.00	5243.00
675.45	5256.00
675.90	5243.00
676.34	5267.00
676.79	5226.00
677.23	5315.00
677.68	5275.00
678.12	5288.00
678.57	5242.00
679.02	5276.00
679.46	5241.00
679.91	5281.00
680.35	5233.00
680.80	5230.00
681.25	5256.00
681.69	5254.00
682.14	5277.00
682.58	5262.00
683.03	5237.00
683.47	5177.00
683.92	5231.00
684.36	5169.00
684.81	5213.00
685.25	5140.00
685.70	5166.00
686.15	5079.00
686.59	4900.00
687.04	4552.00
687.48	4419.00
687.93	4519.00
688.37	4699.00
688.82	4751.00
689.26	4729.00
689.71	4767.00
690.15	4757.00
690.60	4820.00
691.04	4839.00
691.49	4869.00
691.93	4942.00
692.38	4990.00
692.82	5006.00
693.27	4913.00
693.71	4960.00
694.16	4945.00
694.60	4911.00
695.04	4905.00
695.49	4934.00
695.93	4967.00
696.38	4996.00
696.82	5092.00
697.27	5066.00
697.71	5059.00
698.16	5037.00
698.60	5018.00
699.04	4967.00
699.49	4965.00
699.93	4967.00
700.38	4925.00
700.82	4947.00
701.27	4964.00
701.71	4903.00
702.15	4945.00
702.60	4910.00
703.04	4991.00
703.49	4946.00
703.93	5003.00
704.37	5046.00
704.82	5008.00
705.26	5046.00
705.71	5033.00
706.15	5004.00
706.59	5056.00
707.04	5029.00
707.48	4985.00
707.93	5009.00
708.37	5025.00
708.81	5014.00
709.26	5038.00
709.70	5047.00
710.14	5002.00
710.59	5037.00
711.03	4976.00
711.47	5002.00
711.92	5002.00
712.36	5014.00
712.80	4998.00
713.25	5039.00
713.69	4992.00
714.13	4990.00
714.58	5012.00
715.02	4947.00
715.46	4919.00
715.91	4864.00
716.35	4862.00
716.79	4645.00
717.24	4548.00
717.68	4446.00
718.12	4474.00
718.57	4291.00
719.01	4286.00
719.45	4315.00
719.89	4265.00
720.34	4274.00
720.78	4370.00
721.22	4520.00
721.66	4653.00
722.11	4735.00
722.55	4739.00
722.99	4637.00
723.44	4458.00
723.88	4406.00
724.32	4348.00
724.76	4416.00
725.21	4349.00
725.65	4476.00
726.09	4452.00
726.53	4398.00
726.97	4495.00
727.42	4400.00
727.86	4418.00
728.30	4471.00
728.74	4419.00
729.19	4435.00
729.63	4451.00
730.07	4490.00
730.51	4494.00
730.95	4471.00
731.40	4534.00
731.84	4539.00
732.28	4634.00
732.72	4675.00
733.16	4691.00
733.61	4771.00
734.05	4748.00
734.49	4773.00
734.93	4738.00
735.37	4748.00
735.81	4747.00
736.26	4706.00
736.70	4730.00
737.14	4739.00
737.58	4782.00
738.02	4730.00
738.46	4737.00
738.90	4704.00
739.35	4695.00
739.79	4714.00
740.23	4795.00
740.67	4769.00
741.11	4726.00
741.55	4713.00
741.99	4750.00
742.44	4702.00
742.88	4701.00
743.32	4797.00
743.76	4782.00
744.20	4789.00
744.64	4776.00
745.08	4780.00
745.52	4834.00
745.96	4826.00
746.40	4749.00
746.84	4816.00
747.29	4794.00
747.73	4806.00
748.17	4775.00
748.61	4814.00
749.05	4814.00
749.49	4742.00
749.93	4791.00
750.37	4820.00
750.81	4828.00
751.25	4761.00
751.69	4785.00
752.13	4833.00
752.57	4782.00
753.01	4777.00
753.45	4736.00
753.89	4759.00
754.33	4810.00
754.77	4812.00
755.21	4797.00
755.65	4778.00
756.09	4828.00
756.53	4824.00
756.97	4806.00
757.41	4776.00
757.85	4780.00
758.29	4691.00
758.73	4656.00
759.17	4454.00
759.61	3919.00
760.05	3339.00
760.49	2976.00
760.93	2926.00
761.37	3110.00
761.81	3491.00
762.25	3641.00
762.69	3469.00
763.13	3361.00
763.57	3382.00
764.01	3445.00
764.45	3578.00
764.89	3715.00
765.33	3873.00
765.77	4010.00
766.21	4134.00
766.65	4225.00
767.09	4356.00
767.53	4464.00
767.96	4545.00
768.40	4582.00
768.84	4653.00
769.28	4633.00
769.72	4667.00
770.16	4657.00
770.60	4684.00
771.04	4750.00
771.48	4697.00
771.92	4692.00
772.35	4723.00
772.79	4741.00
773.23	4687.00
773.67	4696.00
774.11	4721.00
774.55	4616.00
774.99	4593.00
775.43	4706.00
775.86	4655.00
776.30	4747.00
776.74	4662.00
777.18	4660.00
777.62	4661.00
778.06	4653.00
778.50	4680.00
778.93	4611.00
779.37	4653.00
779.81	4585.00
780.25	4599.00
780.69	4628.00
781.12	4565.00
781.56	4567.00
782.00	4663.00
782.44	4602.00
782.88	4653.00
783.32	4608.00
783.75	4563.00
784.19	4594.00
784.63	4617.00
785.07	4640.00
785.50	4551.00
785.94	4519.00
786.38	4531.00
786.82	4510.00
787.26	4519.00
787.69	4518.00
788.13	4572.00
788.57	4487.00
789.01	4529.00
789.44	4455.00
789.88	4459.00
790.32	4471.00
790.76	4441.00
791.19	4407.00
791.63	4424.00
792.07	4418.00
792.51	4402.00
792.94	4372.00
793.38	4391.00
793.82	4401.00
794.25	4383.00
794.69	4437.00
795.13	4407.00
795.56	4473.00
796.00	4361.00
796.44	4344.00
796.88	4362.00
797.31	4367.00
797.75	4367.00
798.19	4364.00
798.62	4420.00
799.06	4394.00
799.50	4402.00
799.93	4348.00
800.37	4351.00
800.81	4347.00
801.24	4360.00
801.68	4412.00
802.12	4330.00
802.55	4286.00
802.99	4277.00
803.43	4317.00
803.86	4278.00
804.30	4284.00
804.73	4289.00
805.17	4335.00
805.61	4359.00
806.04	4387.00
806.48	4316.00
806.92	4323.00
807.35	4337.00
807.79	4281.00
808.22	4280.00
808.66	4290.00
809.10	4291.00
809.53	4241.00
809.97	4197.00
810.40	4188.00
810.84	4211.00
811.27	4203.00
811.71	4196.00
812.15	4137.00
812.58	4177.00
813.02	4093.00
813.45	4034.00
813.89	3977.00
814.32	3962.00
814.76	3904.00
815.19	3893.00
815.63	3893.00
816.07	3825.00
816.50	3752.00
816.94	3836.00
817.37	3856.00
817.81	3810.00
818.24	3851.00
818.68	3868.00
819.11	3884.00
819.55	3859.00
819.98	3844.00
820.42	3997.00
820.85	4073.00
821.29	4011.00
821.72	3976.00
822.16	3919.00
822.59	3707.00
823.03	3569.00
823.46	3705.00
823.90	3895.00
824.33	3971.00
824.77	4047.00
825.20	4026.00
825.63	3982.00
826.07	4018.00
826.50	4013.00
826.94	4026.00
827.37	3914.00
827.81	3874.00
828.24	3872.00
828.68	3897.00
829.11	3902.00
829.54	3904.00
829.98	3951.00
830.41	3947.00
830.85	3952.00
831.28	3973.00
831.71	3942.00
832.15	3920.00
832.58	3958.00
833.02	3960.00
833.45	3953.00
833.88	3965.00
834.32	4000.00
834.75	3949.00
835.19	4015.00
835.62	3986.00
836.05	4012.00
836.49	4034.00
836.92	4018.00
837.35	4012.00
837.79	4021.00
838.22	4047.00
838.66	4036.00
839.09	4083.00
839.52	4066.00
839.96	4104.00
840.39	4051.00
840.82	4024.00
841.26	4046.00
841.69	4058.00
842.12	4055.00
842.56	4059.00
842.99	3999.00
843.42	4029.00
843.85	4007.00
844.29	4071.00
844.72	4063.00
845.15	4066.00
845.59	4142.00
846.02	4079.00
846.45	4130.00
846.88	4034.00
847.32	4075.00
847.75	4070.00
848.18	3991.00
848.62	4055.00
849.05	3969.00
849.48	3968.00
849.91	3901.00
850.35	3954.00
850.78	4054.00
851.21	3977.00
851.64	3999.00
852.08	4059.00
852.51	4065.00
852.94	4069.00
853.37	3990.00
853.80	3842.00
854.24	3730.00
854.67	3820.00
855.10	3947.00
855.53	3915.00
855.97	3993.00
856.40	3998.00
856.83	4033.00
857.26	4019.00
857.69	3970.00
858.13	4019.00
858.56	4020.00
858.99	4034.00
859.42	4062.00
859.85	4046.00
860.28	4061.00
860.72	4031.00
861.15	4029.00
861.58	4027.00
862.01	3990.00
862.44	4000.00
862.87	4024.00
863.30	4000.00
863.74	4018.00
864.17	3995.00
864.60	3969.00
865.03	4006.00
865.46	3922.00
865.89	3834.00
866.32	3810.00
866.75	3907.00
867.19	3939.00
867.62	4014.00
868.05	3982.00
868.48	3937.00
868.91	3943.00
869.34	3975.00
869.77	3966.00
870.20	3958.00
870.63	3977.00
871.06	3952.00
871.49	3938.00
871.93	3903.00
872.36	3964.00
872.79	3930.00
873.22	3943.00
873.65	3907.00
874.08	3944.00
874.51	3965.00
874.94	3911.00
875.37	3975.00
875.80	3970.00
876.23	3909.00
876.66	3931.00
877.09	3907.00
877.52	3902.00
877.95	3925.00
878.38	3897.00
878.81	3913.00
879.24	3858.00
879.67	3944.00
880.10	3880.00
880.53	3858.00
880.96	3878.00
881.39	3915.00
881.82	3952.00
882.25	3966.00
882.68	3916.00
883.11	3967.00
883.54	3940.00
883.97	3929.00
884.40	3931.00
884.83	3912.00
885.26	3893.00
885.69	3881.00
886.12	3841.00
886.55	3840.00
886.98	3825.00
887.40	3915.00
887.83	3863.00
888.26	3909.00
888.69	3934.00
889.12	3901.00
889.55	3903.00
889.98	3877.00
890.41	3897.00
890.84	3900.00
891.27	3862.00
891.70	3870.00
892.12	3868.00
892.55	3814.00
892.98	3797.00
893.41	3802.00
893.84	3822.00
894.27	3707.00
894.70	3684.00
895.13	3617.00
895.55	3694.00
895.98	3591.00
896.41	3561.00
896.84	3566.00
897.27	3565.00
897.70	3581.00
898.13	3553.00
898.55	3375.00
898.98	3428.00
899.41	3581.00
899.84	3483.00
900.27	3478.00
900.70	3422.00
901.12	3471.00
901.55	3480.00
901.98	3477.00
902.41	3491.00
902.84	3590.00
903.26	3661.00
903.69	3678.00
904.12	3662.00
904.55	3673.00
904.97	3660.00
905.40	3637.00
905.83	3570.00
906.26	3544.00
906.69	3470.00
907.11	3478.00
907.54	3441.00
907.97	3450.00
908.40	3439.00
908.82	3426.00
909.25	3469.00
909.68	3396.00
910.10	3428.00
910.53	3466.00
910.96	3484.00
911.39	3440.00
911.81	3495.00
912.24	3456.00
912.67	3360.00
913.09	3337.00
913.52	3398.00
913.95	3488.00
914.38	3475.00
914.80	3341.00
915.23	3334.00
915.66	3418.00
916.08	3490.00
916.51	3440.00
916.94	3368.00
917.36	3395.00
917.79	3411.00
918.22	3458.00
918.64	3526.00
919.07	3490.00
919.50	3513.00
919.92	3523.00
920.35	3539.00
920.78	3484.00
921.20	3452.00
921.63	3507.00
922.05	3506.00
922.48	3482.00
922.91	3468.00
923.33	3414.00
923.76	3428.00
924.18	3476.00
924.61	3413.00
925.04	3459.00
925.46	3393.00
925.89	3400.00
926.31	3405.00
926.74	3403.00
927.17	3300.00
927.59	3225.00
928.02	3187.00
928.44	3193.00
928.87	3146.00
929.29	3095.00
929.72	3074.00
930.15	3043.00
930.57	3000.00
931.00	2938.00
931.42	2895.00
931.85	2850.00
932.27	2865.00
932.70	2849.00
933.12	2775.00
933.55	2759.00
933.97	2776.00
934.40	2847.00
934.82	2810.00
935.25	2773.00
935.67	2820.00
936.10	2797.00
936.52	2745.00
936.95	2762.00
937.37	2757.00
937.80	2785.00
938.22	2870.00
938.65	2944.00
939.07	2910.00
939.50	2875.00
939.92	2865.00
940.35	2843.00
940.77	2830.00
941.19	2843.00
941.62	2827.00
942.04	2790.00
942.47	2788.00
942.89	2835.00
943.32	2776.00
943.74	2749.00
944.16	2798.00
944.59	2804.00
945.01	2774.00
945.44	2771.00
945.86	2802.00
946.29	2818.00
946.71	2809.00
947.13	2830.00
947.56	2816.00
947.98	2855.00
948.40	2890.00
948.83	2820.00
949.25	2777.00
949.68	2839.00
950.10	2918.00
950.52	2918.00
950.95	2850.00
951.37	2809.00
951.79	2799.00
952.22	2856.00
952.64	2892.00
953.06	2916.00
953.49	2883.00
953.91	2849.00
954.33	2902.00
954.76	2870.00
955.18	2887.00
955.60	2888.00
956.03	2875.00
956.45	2933.00
956.87	3007.00
957.30	2950.00
957.72	2970.00
958.14	2906.00
958.56	2897.00
958.99	2929.00
959.41	2964.00
959.83	2978.00
960.26	2985.00
960.68	3016.00
961.10	2986.00
961.52	2985.00
961.95	2982.00
962.37	3047.00
962.79	3033.00
963.21	3020.00
963.64	3017.00
964.06	3038.00
964.48	3079.00
964.90	3079.00
965.32	3029.00
965.75	3039.00
966.17	3083.00
966.59	3159.00
967.01	3156.00
967.44	3143.00
967.86	3183.00
968.28	3186.00
968.70	3225.00
969.12	3221.00
969.54	3226.00
969.97	3252.00
970.39	3202.00
970.81	3173.00
971.23	3211.00
971.65	3155.00
972.07	3186.00
972.50	3128.00
972.92	3137.00
973.34	3141.00
973.76	3158.00
974.18	3138.00
974.60	3138.00
975.02	3124.00
975.45	3125.00
975.87	3164.00
976.29	3184.00
976.71	3166.00
977.13	3166.00
977.55	3156.00
977.97	3160.00
978.39	3160.00
978.81	3142.00
979.24	3161.00
979.66	3184.00
980.08	3184.00
980.50	3178.00
980.92	3213.00
981.34	3207.00
981.76	3193.00
982.18	3204.00
982.60	3211.00
983.02	3234.00
983.44	3205.00
983.86	3219.00
984.28	3178.00
984.70	3212.00
985.12	3194.00
985.54	3175.00
985.96	3166.00
986.38	3178.00
986.80	3198.00
987.23	3189.00
987.65	3210.00
988.07	3187.00
988.49	3181.00
988.91	3195.00
989.33	3160.00
989.74	3182.00
990.16	3194.00
990.58	3182.00
991.00	3192.00
991.42	3173.00
991.84	3192.00
992.26	3209.00
992.68	3187.00
993.10	3187.00
993.52	3173.00
993.94	3160.00
994.36	3169.00
994.78	3182.00
995.20	3171.00
995.62	3168.00
996.04	3157.00
996.46	3165.00
996.88	3157.00
997.30	3202.00
997.71	3185.00
998.13	3179.00
998.55	3214.00
998.97	3177.00
999.39	3171.00
999.81	3179.00
1000.23	3203.00
1000.65	3200.00
1001.07	3160.00
1001.49	3165.00
1001.90	3185.00
1002.32	3178.00
1002.74	3156.00
1003.16	3184.00
1003.58	3167.00
1004.00	3152.00
1004.42	3157.00
1004.83	3157.00
1005.25	3167.00
1005.67	3162.00
1006.09	3169.00
1006.51	3142.00
1006.92	3146.00
1007.34	3137.00
1007.76	3123.00
1008.18	3119.00
1008.60	3132.00
1009.02	3135.00
1009.43	3145.00
1009.85	3126.00
1010.27	3157.00
1010.69	3122.00
1011.10	3126.00
1011.52	3133.00
1011.94	3122.00
1012.36	3133.00
1012.78	3120.00
1013.19	3088.00
1013.61	3092.00
1014.03	3103.00
1014.45	3094.00
1014.86	3100.00
1015.28	3078.00
1015.70	3063.00
1016.12	3048.00
1016.53	3065.00
1016.95	3062.00
1017.37	3041.00
1017.78	3052.00
1018.20	3036.00
1018.62	3035.00
1019.03	3042.00
1019.45	3058.00
1019.87	3037.00
1020.29	3031.00
1020.70	3042.00
1021.12	3046.00
1021.54	3005.00
1021.95	3011.00
1022.37	3020.00
1022.79	3021.00
1023.20	3005.00
1023.62	3014.00
1024.04	3023.00
1024.45	3002.00
1024.87	2968.00
1025.28	2985.00
1025.70	3000.00
1026.12	2967.00
1026.53	2973.00
1026.95	2950.00
1027.37	2935.00
1027.78	2946.00
1028.20	2995.00
1028.61	2944.00
1029.03	2952.00
1029.45	2966.00
1029.86	2950.00
1030.28	2953.00
1030.69	2934.00
1031.11	2930.00
1031.53	2914.00
1031.94	2922.00
1032.36	2929.00
1032.77	2923.00
1033.19	2919.00
1033.60	2905.00
1034.02	2908.00
1034.43	2896.00
1034.85	2903.00
1035.27	2893.00
1035.68	2884.00
1036.10	2906.00
1036.51	2893.00
1036.93	2890.00
1037.34	2881.00
1037.76	2871.00
1038.17	2881.00
1038.59	2871.00
1039.00	2860.00
1039.42	2866.00
1039.83	2873.00
1040.25	2857.00
1040.66	2856.00
1041.08	2843.00
1041.49	2854.00
1041.91	2853.00
1042.32	2852.00
1042.73	2857.00
1043.15	2845.00
1043.56	2819.00
1043.98	2832.00
1044.39	2810.00
1044.81	2819.00
1045.22	2833.00
1045.64	2812.00
1046.05	2808.00
1046.46	2829.00
1046.88	2807.00
1047.29	2809.00
1047.71	2793.00
1048.12	2788.00
1048.53	2803.00
1048.95	2788.00
1049.36	2803.00
1049.78	2785.00
1050.19	2804.00
1050.60	2790.00
1051.02	2774.00
1051.43	2775.00
1051.85	2765.00
1052.26	2776.00
1052.67	2786.00
1053.09	2769.00
1053.50	2781.00
1053.91	2757.00
1054.33	2771.00
1054.74	2747.00
1055.15	2744.00
1055.57	2755.00
1055.98	2754.00
1056.39	2760.00
1056.81	2740.00
1057.22	2735.00
1057.63	2728.00
1058.05	2729.00
1058.46	2729.00
1058.87	2740.00
1059.28	2727.00
1059.70	2726.00
1060.11	2739.00
1060.52	2726.00
1060.94	2716.00
1061.35	2718.00
1061.76	2720.00
1062.17	2719.00
1062.59	2709.00
1063.00	2712.00
1063.41	2705.00
1063.82	2711.00
1064.24	2715.00
1064.65	2707.00
1065.06	2697.00
1065.47	2707.00
1065.89	2689.00
1066.30	2704.00
1066.71	2700.00
1067.12	2698.00
1067.53	2694.00
1067.95	2697.00
1068.36	2713.00
1068.77	2693.00
1069.18	2688.00
1069.59	2690.00
1070.00	2681.00
1070.42	2677.00
1070.83	2671.00
1071.24	2686.00
1071.65	2674.00
1072.06	2677.00
1072.47	2662.00
1072.89	2669.00
1073.30	2663.00
1073.71	2680.00
1074.12	2670.00
1074.53	2670.00
1074.94	2665.00
1075.35	2659.00
1075.77	2663.00
1076.18	2656.00
1076.59	2670.00
1077.00	2659.00
1077.41	2662.00
1077.82	2658.00
1078.23	2662.00
1078.64	2666.00
1079.05	2649.00
1079.46	2644.00
1079.87	2652.00
1080.29	2655.00
1080.70	2642.00
1081.11	2651.00
1081.52	2655.00
1081.93	2634.00
1082.34	2637.00
1082.75	2646.00
1083.16	2645.00
1083.57	2644.00
1083.98	2637.00
1084.39	2638.00
1084.80	2630.00
1085.21	2639.00
1085.62	2623.00
1086.03	2651.00
1086.44	2635.00
1086.85	2626.00
1087.26	2634.00
1087.67	2629.00
1088.08	2628.00
1088.49	2625.00
1088.90	2623.00
1089.31	2630.00
1089.72	2629.00
1090.13	2619.00
1090.54	2640.00
1090.95	2623.00
1091.36	2612.00
1091.77	2629.00
1092.18	2615.00
1092.59	2618.00
1093.00	2620.00
1093.40	2612.00
1093.81	2613.00
1094.22	2615.00
1094.63	2613.00
1095.04	2608.00
1095.45	2612.00
1095.86	2607.00
1096.27	2605.00
1096.68	2623.00
1097.09	2608.00
1097.50	2612.00
1097.90	2605.00
1098.31	2604.00
1098.72	2598.00
1099.13	2598.00
1099.54	2605.00
1099.95	2587.00
1100.36	2607.00
1100.76	2603.00
1101.17	2599.00
1101.58	2593.00
1101.99	2594.00
1102.40	2605.00
1102.81	2590.00
1103.22	2593.00
1103.62	2585.00
1104.03	2589.00
1104.44	2590.00
1104.85	2589.00
1105.26	2589.00
1105.66	2586.00
1106.07	2593.00
1106.48	2592.00
1106.89	2591.00
1107.30	2594.00
1107.70	2586.00
1108.11	2586.00
1108.52	2591.00
1108.93	2591.00
1109.33	2584.00
1109.74	2586.00
1110.15	2593.00
1110.56	2586.00
1110.96	2586.00
1111.37	2592.00
1111.78	2586.00
1112.19	2585.00
1112.59	2580.00
1113.00	2588.00
1113.41	2585.00
1113.81	2580.00
1114.22	2583.00
1114.63	2561.00
1115.03	2558.00
1115.44	2555.00
1115.85	2559.00
>>>>>End Processed Spectral Data<<<<<
