SpectraSuite Data File
++++++++++++++++++++++++++++++++++++
Date: Thu Aug 05 10:45:31 EEST 2021
User: CanSEE
Dark Spectrum Present: No
Reference Spectrum Present: No
Number of Sampled Component Spectra: 1
Spectrometers: MAYP112785
Integration Time (usec): 10000 (MAYP112785)
Spectra Averaged: 1 (MAYP112785)
Boxcar Smoothing: 0 (MAYP112785)
Correct for Electrical Dark: No (MAYP112785)
Strobe/Lamp Enabled: No (MAYP112785)
Correct for Detector Non-linearity: No (MAYP112785)
Correct for Stray Light: No (MAYP112785)
Number of Pixels in Processed Spectrum: 2068
>>>>>Begin Processed Spectral Data<<<<<
198.35	3480.00
198.82	2487.00
199.30	2594.00
199.77	2577.00
200.24	2600.00
200.71	2593.00
201.18	2605.00
201.65	2615.00
202.13	2615.00
202.60	2615.00
203.07	2605.00
203.54	2609.00
204.01	2612.00
204.48	2605.00
204.96	2601.00
205.43	2602.00
205.90	2604.00
206.37	2605.00
206.84	2604.00
207.31	2599.00
207.78	2602.00
208.26	2604.00
208.73	2594.00
209.20	2608.00
209.67	2606.00
210.14	2611.00
210.61	2607.00
211.08	2601.00
211.56	2615.00
212.03	2611.00
212.50	2596.00
212.97	2600.00
213.44	2608.00
213.91	2601.00
214.38	2602.00
214.85	2602.00
215.33	2607.00
215.80	2608.00
216.27	2599.00
216.74	2604.00
217.21	2603.00
217.68	2607.00
218.15	2601.00
218.62	2608.00
219.09	2608.00
219.57	2616.00
220.04	2605.00
220.51	2600.00
220.98	2611.00
221.45	2604.00
221.92	2610.00
222.39	2601.00
222.86	2607.00
223.33	2607.00
223.80	2608.00
224.27	2607.00
224.74	2604.00
225.22	2605.00
225.69	2609.00
226.16	2607.00
226.63	2608.00
227.10	2609.00
227.57	2599.00
228.04	2607.00
228.51	2604.00
228.98	2612.00
229.45	2610.00
229.92	2609.00
230.39	2609.00
230.86	2613.00
231.33	2605.00
231.80	2610.00
232.27	2605.00
232.75	2606.00
233.22	2603.00
233.69	2611.00
234.16	2607.00
234.63	2607.00
235.10	2610.00
235.57	2604.00
236.04	2611.00
236.51	2604.00
236.98	2608.00
237.45	2610.00
237.92	2610.00
238.39	2606.00
238.86	2602.00
239.33	2670.00
239.80	2606.00
240.27	2615.00
240.74	2601.00
241.21	2603.00
241.68	2603.00
242.15	2606.00
242.62	2608.00
243.09	2613.00
243.56	2606.00
244.03	2610.00
244.50	2614.00
244.97	2617.00
245.44	2622.00
245.91	2603.00
246.38	2602.00
246.85	2608.00
247.32	2611.00
247.79	2611.00
248.26	2608.00
248.73	2601.00
249.20	2606.00
249.67	2604.00
250.14	2620.00
250.61	2609.00
251.08	2607.00
251.55	2606.00
252.02	2602.00
252.49	2606.00
252.96	2609.00
253.43	2609.00
253.90	2606.00
254.37	2606.00
254.84	2606.00
255.31	2602.00
255.77	2613.00
256.24	2604.00
256.71	2604.00
257.18	2617.00
257.65	2604.00
258.12	2610.00
258.59	2610.00
259.06	2610.00
259.53	2611.00
260.00	2608.00
260.47	2610.00
260.94	2601.00
261.41	2617.00
261.88	2616.00
262.35	2608.00
262.81	2614.00
263.28	2611.00
263.75	2615.00
264.22	2608.00
264.69	2613.00
265.16	2611.00
265.63	2615.00
266.10	2608.00
266.57	2600.00
267.04	2607.00
267.51	2611.00
267.97	2609.00
268.44	2605.00
268.91	2611.00
269.38	2611.00
269.85	2607.00
270.32	2614.00
270.79	2606.00
271.26	2613.00
271.73	2606.00
272.19	2609.00
272.66	2606.00
273.13	2606.00
273.60	2608.00
274.07	2606.00
274.54	2607.00
275.01	2605.00
275.48	2614.00
275.94	2604.00
276.41	2613.00
276.88	2608.00
277.35	2610.00
277.82	2612.00
278.29	2609.00
278.76	2615.00
279.22	2603.00
279.69	2597.00
280.16	2608.00
280.63	2600.00
281.10	2603.00
281.57	2604.00
282.04	2605.00
282.50	2607.00
282.97	2608.00
283.44	2609.00
283.91	2611.00
284.38	2610.00
284.85	2609.00
285.31	2611.00
285.78	2599.00
286.25	2605.00
286.72	2609.00
287.19	2600.00
287.65	2611.00
288.12	2611.00
288.59	2603.00
289.06	2599.00
289.53	2602.00
289.99	2605.00
290.46	2609.00
290.93	2611.00
291.40	2606.00
291.87	2603.00
292.33	2611.00
292.80	2607.00
293.27	2608.00
293.74	2608.00
294.21	2601.00
294.67	2602.00
295.14	2600.00
295.61	2603.00
296.08	2608.00
296.54	2610.00
297.01	2603.00
297.48	2614.00
297.95	2610.00
298.42	2617.00
298.88	2606.00
299.35	2612.00
299.82	2609.00
300.29	2600.00
300.75	2609.00
301.22	2610.00
301.69	2605.00
302.16	2614.00
302.62	2603.00
303.09	2605.00
303.56	2618.00
304.03	2612.00
304.49	2614.00
304.96	2610.00
305.43	2613.00
305.90	2617.00
306.36	2611.00
306.83	2619.00
307.30	2612.00
307.76	2620.00
308.23	2620.00
308.70	2621.00
309.17	2619.00
309.63	2626.00
310.10	2625.00
310.57	2640.00
311.03	2647.00
311.50	2655.00
311.97	2657.00
312.44	2643.00
312.90	2653.00
313.37	2655.00
313.84	2670.00
314.30	2663.00
314.77	2665.00
315.24	2663.00
315.70	2672.00
316.17	2663.00
316.64	2683.00
317.10	2690.00
317.57	2700.00
318.04	2694.00
318.50	2687.00
318.97	2704.00
319.44	2710.00
319.90	2699.00
320.37	2713.00
320.84	2732.00
321.30	2720.00
321.77	2709.00
322.24	2717.00
322.70	2721.00
323.17	2730.00
323.64	2721.00
324.10	2755.00
324.57	2753.00
325.04	2763.00
325.50	2769.00
325.97	2780.00
326.44	2817.00
326.90	2819.00
327.37	2793.00
327.84	2799.00
328.30	2795.00
328.77	2792.00
329.23	2834.00
329.70	2844.00
330.17	2837.00
330.63	2844.00
331.10	2825.00
331.56	2832.00
332.03	2818.00
332.50	2832.00
332.96	2837.00
333.43	2829.00
333.90	2810.00
334.36	2849.00
334.83	2841.00
335.29	2843.00
335.76	2823.00
336.22	2846.00
336.69	2805.00
337.16	2821.00
337.62	2815.00
338.09	2833.00
338.55	2826.00
339.02	2865.00
339.49	2875.00
339.95	2879.00
340.42	2887.00
340.88	2897.00
341.35	2879.00
341.81	2874.00
342.28	2891.00
342.75	2884.00
343.21	2900.00
343.68	2889.00
344.14	2878.00
344.61	2867.00
345.07	2867.00
345.54	2877.00
346.00	2887.00
346.47	2899.00
346.93	2911.00
347.40	2912.00
347.87	2903.00
348.33	2931.00
348.80	2900.00
349.26	2911.00
349.73	2915.00
350.19	2927.00
350.66	2954.00
351.12	2956.00
351.59	2923.00
352.05	2941.00
352.52	2944.00
352.98	2951.00
353.45	2952.00
353.91	2994.00
354.38	2996.00
354.84	2996.00
355.31	2978.00
355.77	2974.00
356.24	2971.00
356.70	2954.00
357.17	2914.00
357.63	2920.00
358.10	2907.00
358.56	2888.00
359.03	2914.00
359.49	2938.00
359.96	3000.00
360.42	3012.00
360.89	2984.00
361.35	2958.00
361.82	2968.00
362.28	2966.00
362.75	3007.00
363.21	2997.00
363.67	3005.00
364.14	3004.00
364.60	3035.00
365.07	3008.00
365.53	3048.00
366.00	3091.00
366.46	3148.00
366.93	3089.00
367.39	3086.00
367.86	3062.00
368.32	3081.00
368.78	3087.00
369.25	3061.00
369.71	3110.00
370.18	3133.00
370.64	3098.00
371.11	3089.00
371.57	3101.00
372.03	3096.00
372.50	3048.00
372.96	3038.00
373.43	3039.00
373.89	3024.00
374.35	3033.00
374.82	3039.00
375.28	3023.00
375.75	3104.00
376.21	3121.00
376.67	3120.00
377.14	3149.00
377.60	3206.00
378.07	3230.00
378.53	3253.00
378.99	3189.00
379.46	3158.00
379.92	3147.00
380.39	3146.00
380.85	3175.00
381.31	3165.00
381.78	3115.00
382.24	3048.00
382.70	3044.00
383.17	3001.00
383.63	3011.00
384.09	3047.00
384.56	3108.00
385.02	3175.00
385.48	3170.00
385.95	3160.00
386.41	3146.00
386.88	3153.00
387.34	3151.00
387.80	3159.00
388.27	3204.00
388.73	3189.00
389.19	3218.00
389.66	3274.00
390.12	3307.00
390.58	3364.00
391.05	3313.00
391.51	3343.00
391.97	3333.00
392.43	3236.00
392.90	3168.00
393.36	3083.00
393.82	3042.00
394.29	3144.00
394.75	3246.00
395.21	3338.00
395.68	3351.00
396.14	3315.00
396.60	3210.00
397.07	3170.00
397.53	3244.00
397.99	3425.00
398.45	3559.00
398.92	3638.00
399.38	3695.00
399.84	3681.00
400.31	3726.00
400.77	3772.00
401.23	3762.00
401.69	3782.00
402.16	3809.00
402.62	3769.00
403.08	3829.00
403.54	3807.00
404.01	3782.00
404.47	3805.00
404.93	3759.00
405.39	3779.00
405.86	3795.00
406.32	3778.00
406.78	3744.00
407.24	3832.00
407.71	3876.00
408.17	3788.00
408.63	3841.00
409.09	3894.00
409.56	3877.00
410.02	3864.00
410.48	3827.00
410.94	3855.00
411.40	3914.00
411.87	3981.00
412.33	3947.00
412.79	4021.00
413.25	3938.00
413.71	3999.00
414.18	3982.00
414.64	3987.00
415.10	3973.00
415.56	4027.00
416.02	4014.00
416.49	4046.00
416.95	4044.00
417.41	4032.00
417.87	3985.00
418.33	3989.00
418.80	4024.00
419.26	4006.00
419.72	4037.00
420.18	4037.00
420.64	4065.00
421.10	4082.00
421.57	4074.00
422.03	4067.00
422.49	4078.00
422.95	4037.00
423.41	4078.00
423.87	4041.00
424.34	4068.00
424.80	4040.00
425.26	4087.00
425.72	4046.00
426.18	4065.00
426.64	4071.00
427.10	4060.00
427.57	4037.00
428.03	4007.00
428.49	4039.00
428.95	3957.00
429.41	3925.00
429.87	3888.00
430.33	3841.00
430.79	3865.00
431.26	3891.00
431.72	4014.00
432.18	4154.00
432.64	4165.00
433.10	4126.00
433.56	4193.00
434.02	4192.00
434.48	4135.00
434.94	4256.00
435.40	4303.00
435.87	4355.00
436.33	4365.00
436.79	4293.00
437.25	4329.00
437.71	4255.00
438.17	4254.00
438.63	4235.00
439.09	4217.00
439.55	4314.00
440.01	4379.00
440.47	4405.00
440.93	4437.00
441.39	4456.00
441.85	4554.00
442.32	4539.00
442.78	4586.00
443.24	4598.00
443.70	4606.00
444.16	4608.00
444.62	4573.00
445.08	4555.00
445.54	4523.00
446.00	4525.00
446.46	4527.00
446.92	4643.00
447.38	4644.00
447.84	4714.00
448.30	4714.00
448.76	4709.00
449.22	4774.00
449.68	4809.00
450.14	4821.00
450.60	4824.00
451.06	4872.00
451.52	4840.00
451.98	4823.00
452.44	4799.00
452.90	4772.00
453.36	4734.00
453.82	4710.00
454.28	4808.00
454.74	4867.00
455.20	4821.00
455.66	4805.00
456.12	4857.00
456.58	4952.00
457.04	4928.00
457.50	4931.00
457.96	4907.00
458.42	4930.00
458.88	4882.00
459.34	4890.00
459.80	4917.00
460.26	4900.00
460.72	4943.00
461.18	4976.00
461.64	5002.00
462.10	5014.00
462.55	5022.00
463.01	4999.00
463.47	4989.00
463.93	4982.00
464.39	4936.00
464.85	4952.00
465.31	4931.00
465.77	4962.00
466.23	4980.00
466.69	4985.00
467.15	4988.00
467.61	5009.00
468.07	5050.00
468.52	5039.00
468.98	5025.00
469.44	5037.00
469.90	5022.00
470.36	5023.00
470.82	4985.00
471.28	5042.00
471.74	5078.00
472.20	5126.00
472.66	5150.00
473.11	5146.00
473.57	5133.00
474.03	5183.00
474.49	5157.00
474.95	5086.00
475.41	5160.00
475.87	5146.00
476.33	5172.00
476.78	5168.00
477.24	5157.00
477.70	5217.00
478.16	5208.00
478.62	5236.00
479.08	5241.00
479.54	5201.00
479.99	5252.00
480.45	5209.00
480.91	5299.00
481.37	5301.00
481.83	5292.00
482.29	5291.00
482.74	5277.00
483.20	5284.00
483.66	5200.00
484.12	5293.00
484.58	5162.00
485.04	5104.00
485.49	5017.00
485.95	4940.00
486.41	4956.00
486.87	4910.00
487.33	5079.00
487.78	5101.00
488.24	5142.00
488.70	5199.00
489.16	5267.00
489.62	5265.00
490.07	5277.00
490.53	5306.00
490.99	5263.00
491.45	5235.00
491.90	5261.00
492.36	5287.00
492.82	5222.00
493.28	5362.00
493.74	5376.00
494.19	5347.00
494.65	5366.00
495.11	5410.00
495.57	5363.00
496.02	5388.00
496.48	5392.00
496.94	5369.00
497.40	5381.00
497.85	5351.00
498.31	5355.00
498.77	5316.00
499.23	5323.00
499.68	5323.00
500.14	5250.00
500.60	5282.00
501.06	5225.00
501.51	5231.00
501.97	5233.00
502.43	5226.00
502.88	5278.00
503.34	5287.00
503.80	5255.00
504.26	5316.00
504.71	5362.00
505.17	5380.00
505.63	5458.00
506.08	5378.00
506.54	5381.00
507.00	5330.00
507.45	5388.00
507.91	5370.00
508.37	5325.00
508.82	5378.00
509.28	5399.00
509.74	5411.00
510.19	5471.00
510.65	5407.00
511.11	5432.00
511.56	5462.00
512.02	5506.00
512.48	5483.00
512.93	5428.00
513.39	5350.00
513.85	5360.00
514.30	5389.00
514.76	5380.00
515.22	5368.00
515.67	5411.00
516.13	5318.00
516.59	5225.00
517.04	5148.00
517.50	5125.00
517.95	5146.00
518.41	5294.00
518.87	5232.00
519.32	5328.00
519.78	5408.00
520.24	5456.00
520.69	5513.00
521.15	5472.00
521.60	5492.00
522.06	5513.00
522.52	5497.00
522.97	5518.00
523.43	5518.00
523.88	5565.00
524.34	5648.00
524.80	5674.00
525.25	5643.00
525.71	5530.00
526.16	5450.00
526.62	5393.00
527.07	5389.00
527.53	5386.00
527.99	5537.00
528.44	5661.00
528.90	5636.00
529.35	5589.00
529.81	5682.00
530.26	5675.00
530.72	5703.00
531.17	5739.00
531.63	5715.00
532.09	5601.00
532.54	5613.00
533.00	5624.00
533.45	5531.00
533.91	5578.00
534.36	5655.00
534.82	5622.00
535.27	5754.00
535.73	5703.00
536.18	5704.00
536.64	5721.00
537.09	5689.00
537.55	5722.00
538.00	5701.00
538.46	5690.00
538.91	5692.00
539.37	5619.00
539.82	5599.00
540.28	5560.00
540.73	5606.00
541.19	5611.00
541.64	5655.00
542.10	5709.00
542.55	5687.00
543.01	5635.00
543.46	5663.00
543.92	5688.00
544.37	5741.00
544.83	5729.00
545.28	5751.00
545.74	5714.00
546.19	5756.00
546.64	5748.00
547.10	5698.00
547.55	5700.00
548.01	5700.00
548.46	5743.00
548.92	5696.00
549.37	5751.00
549.83	5794.00
550.28	5736.00
550.73	5734.00
551.19	5698.00
551.64	5824.00
552.10	5790.00
552.55	5776.00
553.00	5810.00
553.46	5719.00
553.91	5791.00
554.37	5838.00
554.82	5860.00
555.28	5871.00
555.73	5843.00
556.18	5830.00
556.64	5651.00
557.09	5671.00
557.54	5778.00
558.00	5701.00
558.45	5741.00
558.91	5661.00
559.36	5740.00
559.81	5664.00
560.27	5773.00
560.72	5809.00
561.17	5784.00
561.63	5811.00
562.08	5775.00
562.54	5756.00
562.99	5710.00
563.44	5784.00
563.90	5815.00
564.35	5825.00
564.80	5782.00
565.26	5760.00
565.71	5748.00
566.16	5771.00
566.62	5696.00
567.07	5768.00
567.52	5815.00
567.98	5786.00
568.43	5778.00
568.88	5756.00
569.34	5695.00
569.79	5764.00
570.24	5736.00
570.69	5641.00
571.15	5706.00
571.60	5679.00
572.05	5774.00
572.51	5845.00
572.96	5824.00
573.41	5889.00
573.86	5851.00
574.32	5801.00
574.77	5748.00
575.22	5780.00
575.68	5744.00
576.13	5749.00
576.58	5771.00
577.03	5801.00
577.49	5808.00
577.94	5794.00
578.39	5756.00
578.84	5702.00
579.30	5765.00
579.75	5759.00
580.20	5791.00
580.65	5879.00
581.11	5854.00
581.56	5833.00
582.01	5887.00
582.46	5936.00
582.92	5952.00
583.37	5885.00
583.82	5901.00
584.27	5911.00
584.72	5977.00
585.18	5879.00
585.63	5909.00
586.08	5867.00
586.53	5812.00
586.98	5844.00
587.44	5886.00
587.89	5828.00
588.34	5759.00
588.79	5603.00
589.24	5555.00
589.70	5525.00
590.15	5613.00
590.60	5695.00
591.05	5802.00
591.50	5703.00
591.96	5778.00
592.41	5766.00
592.86	5747.00
593.31	5781.00
593.76	5755.00
594.21	5704.00
594.66	5799.00
595.12	5699.00
595.57	5705.00
596.02	5768.00
596.47	5880.00
596.92	5852.00
597.37	5765.00
597.82	5832.00
598.28	5751.00
598.73	5723.00
599.18	5827.00
599.63	5847.00
600.08	5837.00
600.53	5785.00
600.98	5762.00
601.43	5777.00
601.88	5732.00
602.34	5803.00
602.79	5756.00
603.24	5831.00
603.69	5933.00
604.14	5845.00
604.59	5947.00
605.04	5873.00
605.49	5867.00
605.94	5886.00
606.39	5825.00
606.84	5870.00
607.30	5929.00
607.75	5927.00
608.20	5893.00
608.65	5872.00
609.10	5869.00
609.55	5832.00
610.00	5838.00
610.45	5862.00
610.90	5809.00
611.35	5854.00
611.80	5872.00
612.25	5847.00
612.70	5854.00
613.15	5863.00
613.60	5833.00
614.05	5773.00
614.50	5833.00
614.95	5847.00
615.40	5846.00
615.85	5743.00
616.30	5753.00
616.75	5784.00
617.20	5753.00
617.65	5793.00
618.10	5827.00
618.55	5861.00
619.00	5865.00
619.45	5882.00
619.90	5900.00
620.35	5973.00
620.80	5904.00
621.25	5864.00
621.70	5869.00
622.15	5893.00
622.60	5820.00
623.05	5825.00
623.50	5792.00
623.95	5832.00
624.40	5772.00
624.85	5789.00
625.30	5764.00
625.75	5782.00
626.20	5841.00
626.65	5799.00
627.10	5861.00
627.55	5751.00
627.99	5661.00
628.44	5728.00
628.89	5686.00
629.34	5799.00
629.79	5787.00
630.24	5751.00
630.69	5745.00
631.14	5828.00
631.59	5774.00
632.04	5773.00
632.49	5802.00
632.94	5833.00
633.38	5828.00
633.83	5895.00
634.28	5771.00
634.73	5911.00
635.18	5912.00
635.63	5881.00
636.08	5892.00
636.53	5860.00
636.97	5849.00
637.42	5978.00
637.87	5908.00
638.32	5989.00
638.77	5992.00
639.22	5960.00
639.67	5906.00
640.11	5833.00
640.56	5905.00
641.01	5808.00
641.46	5854.00
641.91	5860.00
642.36	5933.00
642.81	5968.00
643.25	5967.00
643.70	5835.00
644.15	5939.00
644.60	5903.00
645.05	5870.00
645.49	5938.00
645.94	5907.00
646.39	5843.00
646.84	5885.00
647.29	5800.00
647.73	5767.00
648.18	5830.00
648.63	5781.00
649.08	5797.00
649.53	5705.00
649.97	5755.00
650.42	5830.00
650.87	5880.00
651.32	5854.00
651.77	5868.00
652.21	5845.00
652.66	5868.00
653.11	5885.00
653.56	5885.00
654.00	5915.00
654.45	5838.00
654.90	5777.00
655.35	5733.00
655.79	5519.00
656.24	5368.00
656.69	5451.00
657.14	5494.00
657.58	5754.00
658.03	5788.00
658.48	5802.00
658.92	5831.00
659.37	5838.00
659.82	5846.00
660.27	5869.00
660.71	5913.00
661.16	5870.00
661.61	5886.00
662.05	5936.00
662.50	5952.00
662.95	5965.00
663.39	5832.00
663.84	5910.00
664.29	5878.00
664.74	5906.00
665.18	5960.00
665.63	5992.00
666.08	5951.00
666.52	5882.00
666.97	5891.00
667.42	5849.00
667.86	5896.00
668.31	5889.00
668.76	5876.00
669.20	5890.00
669.65	5917.00
670.09	5891.00
670.54	5899.00
670.99	5851.00
671.43	5872.00
671.88	5885.00
672.33	5943.00
672.77	5809.00
673.22	5852.00
673.66	5872.00
674.11	5913.00
674.56	5861.00
675.00	5899.00
675.45	5838.00
675.90	5818.00
676.34	5862.00
676.79	5875.00
677.23	5912.00
677.68	5822.00
678.12	5839.00
678.57	5854.00
679.02	5853.00
679.46	5859.00
679.91	5858.00
680.35	5838.00
680.80	5799.00
681.25	5805.00
681.69	5829.00
682.14	5876.00
682.58	5852.00
683.03	5831.00
683.47	5807.00
683.92	5761.00
684.36	5740.00
684.81	5696.00
685.25	5782.00
685.70	5770.00
686.15	5677.00
686.59	5448.00
687.04	5058.00
687.48	4908.00
687.93	4953.00
688.37	5171.00
688.82	5327.00
689.26	5239.00
689.71	5248.00
690.15	5236.00
690.60	5293.00
691.04	5363.00
691.49	5453.00
691.93	5429.00
692.38	5533.00
692.82	5544.00
693.27	5495.00
693.71	5504.00
694.16	5432.00
694.60	5421.00
695.04	5450.00
695.49	5475.00
695.93	5502.00
696.38	5546.00
696.82	5627.00
697.27	5676.00
697.71	5611.00
698.16	5577.00
698.60	5519.00
699.04	5491.00
699.49	5459.00
699.93	5499.00
700.38	5499.00
700.82	5480.00
701.27	5449.00
701.71	5480.00
702.15	5492.00
702.60	5387.00
703.04	5475.00
703.49	5541.00
703.93	5533.00
704.37	5535.00
704.82	5615.00
705.26	5556.00
705.71	5547.00
706.15	5501.00
706.59	5545.00
707.04	5569.00
707.48	5564.00
707.93	5634.00
708.37	5571.00
708.81	5548.00
709.26	5545.00
709.70	5537.00
710.14	5532.00
710.59	5573.00
711.03	5529.00
711.47	5563.00
711.92	5521.00
712.36	5516.00
712.80	5545.00
713.25	5517.00
713.69	5593.00
714.13	5561.00
714.58	5555.00
715.02	5479.00
715.46	5457.00
715.91	5422.00
716.35	5319.00
716.79	5162.00
717.24	4988.00
717.68	4862.00
718.12	4826.00
718.57	4736.00
719.01	4728.00
719.45	4681.00
719.89	4698.00
720.34	4674.00
720.78	4774.00
721.22	4973.00
721.66	5118.00
722.11	5207.00
722.55	5161.00
722.99	5114.00
723.44	4937.00
723.88	4818.00
724.32	4789.00
724.76	4852.00
725.21	4852.00
725.65	4818.00
726.09	4939.00
726.53	4866.00
726.97	4961.00
727.42	4935.00
727.86	4838.00
728.30	4919.00
728.74	4939.00
729.19	4820.00
729.63	4901.00
730.07	4941.00
730.51	4976.00
730.95	4913.00
731.40	4980.00
731.84	4961.00
732.28	5065.00
732.72	5203.00
733.16	5136.00
733.61	5164.00
734.05	5269.00
734.49	5246.00
734.93	5245.00
735.37	5140.00
735.81	5289.00
736.26	5225.00
736.70	5192.00
737.14	5257.00
737.58	5247.00
738.02	5262.00
738.46	5168.00
738.90	5163.00
739.35	5153.00
739.79	5220.00
740.23	5268.00
740.67	5190.00
741.11	5204.00
741.55	5204.00
741.99	5166.00
742.44	5190.00
742.88	5229.00
743.32	5281.00
743.76	5231.00
744.20	5292.00
744.64	5233.00
745.08	5227.00
745.52	5263.00
745.96	5240.00
746.40	5251.00
746.84	5295.00
747.29	5280.00
747.73	5283.00
748.17	5283.00
748.61	5264.00
749.05	5268.00
749.49	5237.00
749.93	5274.00
750.37	5199.00
750.81	5295.00
751.25	5276.00
751.69	5272.00
752.13	5221.00
752.57	5244.00
753.01	5281.00
753.45	5221.00
753.89	5295.00
754.33	5297.00
754.77	5340.00
755.21	5259.00
755.65	5311.00
756.09	5235.00
756.53	5273.00
756.97	5231.00
757.41	5261.00
757.85	5258.00
758.29	5190.00
758.73	5108.00
759.17	4964.00
759.61	4367.00
760.05	3621.00
760.49	3155.00
760.93	3062.00
761.37	3241.00
761.81	3715.00
762.25	3961.00
762.69	3780.00
763.13	3622.00
763.57	3621.00
764.01	3678.00
764.45	3864.00
764.89	3991.00
765.33	4191.00
765.77	4358.00
766.21	4503.00
766.65	4637.00
767.09	4760.00
767.53	4880.00
767.96	5008.00
768.40	5005.00
768.84	5075.00
769.28	5066.00
769.72	5124.00
770.16	5075.00
770.60	5117.00
771.04	5131.00
771.48	5106.00
771.92	5124.00
772.35	5116.00
772.79	5152.00
773.23	5142.00
773.67	5150.00
774.11	5166.00
774.55	5114.00
774.99	5009.00
775.43	5095.00
775.86	5165.00
776.30	5152.00
776.74	5109.00
777.18	5144.00
777.62	5123.00
778.06	5185.00
778.50	5099.00
778.93	5113.00
779.37	5020.00
779.81	5107.00
780.25	5012.00
780.69	5070.00
781.12	5061.00
781.56	5041.00
782.00	5038.00
782.44	5048.00
782.88	5092.00
783.32	5053.00
783.75	5048.00
784.19	5030.00
784.63	5055.00
785.07	5012.00
785.50	4978.00
785.94	4962.00
786.38	4956.00
786.82	4903.00
787.26	4957.00
787.69	4936.00
788.13	4921.00
788.57	4962.00
789.01	4929.00
789.44	4914.00
789.88	4911.00
790.32	4925.00
790.76	4854.00
791.19	4841.00
791.63	4807.00
792.07	4794.00
792.51	4840.00
792.94	4786.00
793.38	4826.00
793.82	4808.00
794.25	4806.00
794.69	4781.00
795.13	4828.00
795.56	4848.00
796.00	4792.00
796.44	4747.00
796.88	4800.00
797.31	4780.00
797.75	4758.00
798.19	4759.00
798.62	4797.00
799.06	4810.00
799.50	4776.00
799.93	4793.00
800.37	4720.00
800.81	4773.00
801.24	4723.00
801.68	4729.00
802.12	4769.00
802.55	4749.00
802.99	4651.00
803.43	4679.00
803.86	4655.00
804.30	4652.00
804.73	4616.00
805.17	4701.00
805.61	4729.00
806.04	4738.00
806.48	4753.00
806.92	4764.00
807.35	4703.00
807.79	4731.00
808.22	4650.00
808.66	4680.00
809.10	4591.00
809.53	4538.00
809.97	4582.00
810.40	4581.00
810.84	4568.00
811.27	4569.00
811.71	4577.00
812.15	4556.00
812.58	4480.00
813.02	4475.00
813.45	4366.00
813.89	4337.00
814.32	4285.00
814.76	4195.00
815.19	4157.00
815.63	4165.00
816.07	4162.00
816.50	4056.00
816.94	4097.00
817.37	4191.00
817.81	4095.00
818.24	4102.00
818.68	4203.00
819.11	4226.00
819.55	4151.00
819.98	4152.00
820.42	4270.00
820.85	4386.00
821.29	4356.00
821.72	4306.00
822.16	4208.00
822.59	3992.00
823.03	3827.00
823.46	3968.00
823.90	4214.00
824.33	4272.00
824.77	4405.00
825.20	4352.00
825.63	4359.00
826.07	4361.00
826.50	4346.00
826.94	4361.00
827.37	4250.00
827.81	4159.00
828.24	4169.00
828.68	4170.00
829.11	4152.00
829.54	4197.00
829.98	4262.00
830.41	4256.00
830.85	4298.00
831.28	4289.00
831.71	4214.00
832.15	4258.00
832.58	4270.00
833.02	4261.00
833.45	4251.00
833.88	4244.00
834.32	4275.00
834.75	4297.00
835.19	4261.00
835.62	4325.00
836.05	4303.00
836.49	4312.00
836.92	4381.00
837.35	4385.00
837.79	4368.00
838.22	4383.00
838.66	4407.00
839.09	4356.00
839.52	4414.00
839.96	4418.00
840.39	4383.00
840.82	4369.00
841.26	4378.00
841.69	4336.00
842.12	4292.00
842.56	4373.00
842.99	4371.00
843.42	4331.00
843.85	4388.00
844.29	4385.00
844.72	4369.00
845.15	4411.00
845.59	4426.00
846.02	4477.00
846.45	4407.00
846.88	4418.00
847.32	4372.00
847.75	4370.00
848.18	4370.00
848.62	4305.00
849.05	4318.00
849.48	4257.00
849.91	4120.00
850.35	4223.00
850.78	4328.00
851.21	4338.00
851.64	4325.00
852.08	4370.00
852.51	4374.00
852.94	4351.00
853.37	4317.00
853.80	4131.00
854.24	3966.00
854.67	4117.00
855.10	4264.00
855.53	4244.00
855.97	4296.00
856.40	4271.00
856.83	4307.00
857.26	4306.00
857.69	4341.00
858.13	4339.00
858.56	4345.00
858.99	4344.00
859.42	4370.00
859.85	4364.00
860.28	4395.00
860.72	4355.00
861.15	4330.00
861.58	4288.00
862.01	4327.00
862.44	4317.00
862.87	4284.00
863.30	4321.00
863.74	4306.00
864.17	4327.00
864.60	4289.00
865.03	4299.00
865.46	4198.00
865.89	4076.00
866.32	4061.00
866.75	4189.00
867.19	4238.00
867.62	4287.00
868.05	4288.00
868.48	4239.00
868.91	4236.00
869.34	4243.00
869.77	4256.00
870.20	4291.00
870.63	4229.00
871.06	4284.00
871.49	4251.00
871.93	4267.00
872.36	4264.00
872.79	4235.00
873.22	4262.00
873.65	4184.00
874.08	4218.00
874.51	4249.00
874.94	4201.00
875.37	4226.00
875.80	4246.00
876.23	4235.00
876.66	4239.00
877.09	4165.00
877.52	4204.00
877.95	4184.00
878.38	4210.00
878.81	4168.00
879.24	4160.00
879.67	4167.00
880.10	4194.00
880.53	4101.00
880.96	4144.00
881.39	4228.00
881.82	4222.00
882.25	4184.00
882.68	4212.00
883.11	4277.00
883.54	4194.00
883.97	4182.00
884.40	4269.00
884.83	4183.00
885.26	4203.00
885.69	4139.00
886.12	4136.00
886.55	4100.00
886.98	4182.00
887.40	4125.00
887.83	4154.00
888.26	4155.00
888.69	4203.00
889.12	4170.00
889.55	4155.00
889.98	4156.00
890.41	4162.00
890.84	4171.00
891.27	4154.00
891.70	4185.00
892.12	4168.00
892.55	4048.00
892.98	4064.00
893.41	4070.00
893.84	4040.00
894.27	3949.00
894.70	3911.00
895.13	3898.00
895.55	3901.00
895.98	3802.00
896.41	3792.00
896.84	3765.00
897.27	3764.00
897.70	3834.00
898.13	3814.00
898.55	3602.00
898.98	3619.00
899.41	3780.00
899.84	3712.00
900.27	3696.00
900.70	3722.00
901.12	3687.00
901.55	3702.00
901.98	3727.00
902.41	3704.00
902.84	3799.00
903.26	3898.00
903.69	3883.00
904.12	3905.00
904.55	3911.00
904.97	3898.00
905.40	3852.00
905.83	3820.00
906.26	3778.00
906.69	3699.00
907.11	3686.00
907.54	3662.00
907.97	3706.00
908.40	3668.00
908.82	3626.00
909.25	3676.00
909.68	3605.00
910.10	3664.00
910.53	3681.00
910.96	3736.00
911.39	3641.00
911.81	3680.00
912.24	3677.00
912.67	3556.00
913.09	3526.00
913.52	3571.00
913.95	3709.00
914.38	3705.00
914.80	3614.00
915.23	3526.00
915.66	3630.00
916.08	3705.00
916.51	3709.00
916.94	3562.00
917.36	3572.00
917.79	3640.00
918.22	3675.00
918.64	3685.00
919.07	3699.00
919.50	3741.00
919.92	3755.00
920.35	3730.00
920.78	3701.00
921.20	3692.00
921.63	3655.00
922.05	3705.00
922.48	3696.00
922.91	3664.00
923.33	3640.00
923.76	3656.00
924.18	3605.00
924.61	3641.00
925.04	3613.00
925.46	3623.00
925.89	3620.00
926.31	3642.00
926.74	3586.00
927.17	3463.00
927.59	3416.00
928.02	3375.00
928.44	3366.00
928.87	3294.00
929.29	3254.00
929.72	3222.00
930.15	3207.00
930.57	3164.00
931.00	3073.00
931.42	2979.00
931.85	2948.00
932.27	2955.00
932.70	2947.00
933.12	2878.00
933.55	2855.00
933.97	2844.00
934.40	2955.00
934.82	2928.00
935.25	2859.00
935.67	2903.00
936.10	2874.00
936.52	2833.00
936.95	2858.00
937.37	2837.00
937.80	2875.00
938.22	2960.00
938.65	3036.00
939.07	3036.00
939.50	2973.00
939.92	2957.00
940.35	2931.00
940.77	2920.00
941.19	2940.00
941.62	2937.00
942.04	2876.00
942.47	2851.00
942.89	2925.00
943.32	2842.00
943.74	2814.00
944.16	2889.00
944.59	2902.00
945.01	2869.00
945.44	2828.00
945.86	2880.00
946.29	2881.00
946.71	2917.00
947.13	2892.00
947.56	2883.00
947.98	2912.00
948.40	2974.00
948.83	2904.00
949.25	2858.00
949.68	2920.00
950.10	3003.00
950.52	3026.00
950.95	2964.00
951.37	2894.00
951.79	2900.00
952.22	2947.00
952.64	3005.00
953.06	3029.00
953.49	2974.00
953.91	2949.00
954.33	2993.00
954.76	2964.00
955.18	2981.00
955.60	3000.00
956.03	2960.00
956.45	3033.00
956.87	3122.00
957.30	3082.00
957.72	3075.00
958.14	2982.00
958.56	2992.00
958.99	3019.00
959.41	3068.00
959.83	3071.00
960.26	3099.00
960.68	3161.00
961.10	3118.00
961.52	3068.00
961.95	3073.00
962.37	3174.00
962.79	3147.00
963.21	3126.00
963.64	3143.00
964.06	3175.00
964.48	3217.00
964.90	3203.00
965.32	3174.00
965.75	3181.00
966.17	3212.00
966.59	3298.00
967.01	3335.00
967.44	3315.00
967.86	3331.00
968.28	3332.00
968.70	3383.00
969.12	3328.00
969.54	3356.00
969.97	3359.00
970.39	3365.00
970.81	3335.00
971.23	3339.00
971.65	3308.00
972.07	3317.00
972.50	3291.00
972.92	3270.00
973.34	3292.00
973.76	3301.00
974.18	3326.00
974.60	3281.00
975.02	3276.00
975.45	3239.00
975.87	3292.00
976.29	3303.00
976.71	3340.00
977.13	3284.00
977.55	3309.00
977.97	3318.00
978.39	3282.00
978.81	3327.00
979.24	3335.00
979.66	3342.00
980.08	3351.00
980.50	3339.00
980.92	3367.00
981.34	3361.00
981.76	3330.00
982.18	3358.00
982.60	3361.00
983.02	3349.00
983.44	3347.00
983.86	3368.00
984.28	3331.00
984.70	3358.00
985.12	3354.00
985.54	3335.00
985.96	3327.00
986.38	3336.00
986.80	3373.00
987.23	3318.00
987.65	3361.00
988.07	3336.00
988.49	3338.00
988.91	3357.00
989.33	3344.00
989.74	3349.00
990.16	3348.00
990.58	3337.00
991.00	3339.00
991.42	3339.00
991.84	3337.00
992.26	3317.00
992.68	3335.00
993.10	3337.00
993.52	3340.00
993.94	3314.00
994.36	3306.00
994.78	3324.00
995.20	3333.00
995.62	3304.00
996.04	3316.00
996.46	3327.00
996.88	3325.00
997.30	3324.00
997.71	3321.00
998.13	3315.00
998.55	3348.00
998.97	3354.00
999.39	3315.00
999.81	3363.00
1000.23	3335.00
1000.65	3301.00
1001.07	3336.00
1001.49	3333.00
1001.90	3310.00
1002.32	3323.00
1002.74	3312.00
1003.16	3273.00
1003.58	3319.00
1004.00	3293.00
1004.42	3268.00
1004.83	3284.00
1005.25	3278.00
1005.67	3297.00
1006.09	3283.00
1006.51	3301.00
1006.92	3292.00
1007.34	3250.00
1007.76	3275.00
1008.18	3299.00
1008.60	3279.00
1009.02	3257.00
1009.43	3283.00
1009.85	3267.00
1010.27	3281.00
1010.69	3280.00
1011.10	3267.00
1011.52	3248.00
1011.94	3245.00
1012.36	3260.00
1012.78	3258.00
1013.19	3203.00
1013.61	3232.00
1014.03	3229.00
1014.45	3216.00
1014.86	3210.00
1015.28	3212.00
1015.70	3236.00
1016.12	3212.00
1016.53	3232.00
1016.95	3193.00
1017.37	3186.00
1017.78	3173.00
1018.20	3134.00
1018.62	3160.00
1019.03	3167.00
1019.45	3155.00
1019.87	3134.00
1020.29	3126.00
1020.70	3148.00
1021.12	3129.00
1021.54	3136.00
1021.95	3104.00
1022.37	3133.00
1022.79	3124.00
1023.20	3123.00
1023.62	3103.00
1024.04	3116.00
1024.45	3112.00
1024.87	3100.00
1025.28	3107.00
1025.70	3093.00
1026.12	3085.00
1026.53	3071.00
1026.95	3079.00
1027.37	3090.00
1027.78	3087.00
1028.20	3061.00
1028.61	3043.00
1029.03	3072.00
1029.45	3047.00
1029.86	3065.00
1030.28	3035.00
1030.69	3054.00
1031.11	3003.00
1031.53	3024.00
1031.94	3010.00
1032.36	3005.00
1032.77	3033.00
1033.19	3016.00
1033.60	2993.00
1034.02	3015.00
1034.43	2994.00
1034.85	3001.00
1035.27	2997.00
1035.68	2980.00
1036.10	2987.00
1036.51	3004.00
1036.93	2980.00
1037.34	2976.00
1037.76	2979.00
1038.17	2956.00
1038.59	2956.00
1039.00	2950.00
1039.42	2968.00
1039.83	2955.00
1040.25	2964.00
1040.66	2934.00
1041.08	2957.00
1041.49	2957.00
1041.91	2920.00
1042.32	2914.00
1042.73	2920.00
1043.15	2921.00
1043.56	2919.00
1043.98	2908.00
1044.39	2911.00
1044.81	2913.00
1045.22	2884.00
1045.64	2909.00
1046.05	2900.00
1046.46	2897.00
1046.88	2903.00
1047.29	2886.00
1047.71	2884.00
1048.12	2869.00
1048.53	2871.00
1048.95	2857.00
1049.36	2866.00
1049.78	2847.00
1050.19	2846.00
1050.60	2876.00
1051.02	2840.00
1051.43	2831.00
1051.85	2850.00
1052.26	2835.00
1052.67	2834.00
1053.09	2834.00
1053.50	2814.00
1053.91	2845.00
1054.33	2837.00
1054.74	2831.00
1055.15	2817.00
1055.57	2813.00
1055.98	2806.00
1056.39	2815.00
1056.81	2802.00
1057.22	2800.00
1057.63	2795.00
1058.05	2787.00
1058.46	2795.00
1058.87	2773.00
1059.28	2794.00
1059.70	2785.00
1060.11	2794.00
1060.52	2777.00
1060.94	2792.00
1061.35	2771.00
1061.76	2773.00
1062.17	2782.00
1062.59	2787.00
1063.00	2772.00
1063.41	2773.00
1063.82	2759.00
1064.24	2753.00
1064.65	2750.00
1065.06	2745.00
1065.47	2754.00
1065.89	2750.00
1066.30	2750.00
1066.71	2747.00
1067.12	2742.00
1067.53	2744.00
1067.95	2734.00
1068.36	2744.00
1068.77	2742.00
1069.18	2739.00
1069.59	2732.00
1070.00	2714.00
1070.42	2728.00
1070.83	2732.00
1071.24	2731.00
1071.65	2719.00
1072.06	2715.00
1072.47	2707.00
1072.89	2720.00
1073.30	2714.00
1073.71	2714.00
1074.12	2714.00
1074.53	2712.00
1074.94	2703.00
1075.35	2707.00
1075.77	2700.00
1076.18	2703.00
1076.59	2708.00
1077.00	2696.00
1077.41	2700.00
1077.82	2710.00
1078.23	2701.00
1078.64	2705.00
1079.05	2693.00
1079.46	2688.00
1079.87	2687.00
1080.29	2703.00
1080.70	2692.00
1081.11	2680.00
1081.52	2681.00
1081.93	2683.00
1082.34	2680.00
1082.75	2674.00
1083.16	2685.00
1083.57	2679.00
1083.98	2673.00
1084.39	2670.00
1084.80	2683.00
1085.21	2669.00
1085.62	2676.00
1086.03	2696.00
1086.44	2668.00
1086.85	2664.00
1087.26	2672.00
1087.67	2666.00
1088.08	2655.00
1088.49	2657.00
1088.90	2662.00
1089.31	2669.00
1089.72	2658.00
1090.13	2659.00
1090.54	2655.00
1090.95	2658.00
1091.36	2659.00
1091.77	2653.00
1092.18	2652.00
1092.59	2652.00
1093.00	2646.00
1093.40	2647.00
1093.81	2648.00
1094.22	2657.00
1094.63	2647.00
1095.04	2639.00
1095.45	2643.00
1095.86	2640.00
1096.27	2631.00
1096.68	2639.00
1097.09	2638.00
1097.50	2634.00
1097.90	2627.00
1098.31	2641.00
1098.72	2625.00
1099.13	2625.00
1099.54	2636.00
1099.95	2623.00
1100.36	2623.00
1100.76	2621.00
1101.17	2631.00
1101.58	2625.00
1101.99	2626.00
1102.40	2627.00
1102.81	2626.00
1103.22	2623.00
1103.62	2622.00
1104.03	2612.00
1104.44	2631.00
1104.85	2613.00
1105.26	2616.00
1105.66	2615.00
1106.07	2614.00
1106.48	2615.00
1106.89	2616.00
1107.30	2617.00
1107.70	2615.00
1108.11	2614.00
1108.52	2616.00
1108.93	2617.00
1109.33	2608.00
1109.74	2611.00
1110.15	2607.00
1110.56	2604.00
1110.96	2607.00
1111.37	2610.00
1111.78	2613.00
1112.19	2612.00
1112.59	2608.00
1113.00	2609.00
1113.41	2605.00
1113.81	2605.00
1114.22	2601.00
1114.63	2575.00
1115.03	2575.00
1115.44	2573.00
1115.85	2571.00
>>>>>End Processed Spectral Data<<<<<
