SpectraSuite Data File
++++++++++++++++++++++++++++++++++++
Date: Thu Aug 05 10:45:31 EEST 2021
User: CanSEE
Dark Spectrum Present: No
Reference Spectrum Present: No
Number of Sampled Component Spectra: 1
Spectrometers: MAYP112785
Integration Time (usec): 10000 (MAYP112785)
Spectra Averaged: 1 (MAYP112785)
Boxcar Smoothing: 0 (MAYP112785)
Correct for Electrical Dark: No (MAYP112785)
Strobe/Lamp Enabled: No (MAYP112785)
Correct for Detector Non-linearity: No (MAYP112785)
Correct for Stray Light: No (MAYP112785)
Number of Pixels in Processed Spectrum: 2068
>>>>>Begin Processed Spectral Data<<<<<
198.35	3484.00
198.82	2488.00
199.30	2585.00
199.77	2579.00
200.24	2608.00
200.71	2601.00
201.18	2608.00
201.65	2603.00
202.13	2604.00
202.60	2612.00
203.07	2601.00
203.54	2607.00
204.01	2608.00
204.48	2603.00
204.96	2603.00
205.43	2600.00
205.90	2615.00
206.37	2602.00
206.84	2601.00
207.31	2595.00
207.78	2608.00
208.26	2607.00
208.73	2605.00
209.20	2607.00
209.67	2611.00
210.14	2602.00
210.61	2605.00
211.08	2608.00
211.56	2608.00
212.03	2615.00
212.50	2609.00
212.97	2605.00
213.44	2608.00
213.91	2600.00
214.38	2604.00
214.85	2606.00
215.33	2602.00
215.80	2610.00
216.27	2604.00
216.74	2602.00
217.21	2610.00
217.68	2610.00
218.15	2606.00
218.62	2605.00
219.09	2601.00
219.57	2613.00
220.04	2610.00
220.51	2605.00
220.98	2605.00
221.45	2613.00
221.92	2609.00
222.39	2607.00
222.86	2601.00
223.33	2612.00
223.80	2605.00
224.27	2609.00
224.74	2609.00
225.22	2612.00
225.69	2607.00
226.16	2604.00
226.63	2610.00
227.10	2603.00
227.57	2606.00
228.04	2605.00
228.51	2609.00
228.98	2607.00
229.45	2599.00
229.92	2607.00
230.39	2605.00
230.86	2609.00
231.33	2610.00
231.80	2607.00
232.27	2607.00
232.75	2609.00
233.22	2613.00
233.69	2609.00
234.16	2605.00
234.63	2609.00
235.10	2609.00
235.57	2610.00
236.04	2604.00
236.51	2613.00
236.98	2607.00
237.45	2611.00
237.92	2608.00
238.39	2609.00
238.86	2613.00
239.33	2666.00
239.80	2607.00
240.27	2603.00
240.74	2609.00
241.21	2604.00
241.68	2607.00
242.15	2606.00
242.62	2616.00
243.09	2608.00
243.56	2606.00
244.03	2611.00
244.50	2610.00
244.97	2604.00
245.44	2619.00
245.91	2609.00
246.38	2609.00
246.85	2602.00
247.32	2613.00
247.79	2601.00
248.26	2615.00
248.73	2611.00
249.20	2603.00
249.67	2609.00
250.14	2610.00
250.61	2612.00
251.08	2612.00
251.55	2605.00
252.02	2609.00
252.49	2601.00
252.96	2606.00
253.43	2606.00
253.90	2608.00
254.37	2613.00
254.84	2609.00
255.31	2607.00
255.77	2601.00
256.24	2605.00
256.71	2611.00
257.18	2609.00
257.65	2619.00
258.12	2609.00
258.59	2612.00
259.06	2607.00
259.53	2603.00
260.00	2608.00
260.47	2616.00
260.94	2607.00
261.41	2604.00
261.88	2611.00
262.35	2608.00
262.81	2607.00
263.28	2609.00
263.75	2609.00
264.22	2609.00
264.69	2612.00
265.16	2609.00
265.63	2616.00
266.10	2600.00
266.57	2609.00
267.04	2607.00
267.51	2605.00
267.97	2607.00
268.44	2610.00
268.91	2607.00
269.38	2610.00
269.85	2614.00
270.32	2604.00
270.79	2612.00
271.26	2603.00
271.73	2610.00
272.19	2606.00
272.66	2604.00
273.13	2604.00
273.60	2609.00
274.07	2610.00
274.54	2605.00
275.01	2616.00
275.48	2613.00
275.94	2605.00
276.41	2607.00
276.88	2603.00
277.35	2603.00
277.82	2604.00
278.29	2609.00
278.76	2607.00
279.22	2610.00
279.69	2609.00
280.16	2609.00
280.63	2610.00
281.10	2607.00
281.57	2608.00
282.04	2609.00
282.50	2603.00
282.97	2612.00
283.44	2608.00
283.91	2606.00
284.38	2598.00
284.85	2610.00
285.31	2606.00
285.78	2602.00
286.25	2604.00
286.72	2605.00
287.19	2605.00
287.65	2608.00
288.12	2603.00
288.59	2611.00
289.06	2608.00
289.53	2602.00
289.99	2608.00
290.46	2607.00
290.93	2604.00
291.40	2607.00
291.87	2609.00
292.33	2607.00
292.80	2606.00
293.27	2611.00
293.74	2603.00
294.21	2603.00
294.67	2609.00
295.14	2606.00
295.61	2605.00
296.08	2607.00
296.54	2611.00
297.01	2605.00
297.48	2616.00
297.95	2608.00
298.42	2615.00
298.88	2609.00
299.35	2603.00
299.82	2615.00
300.29	2609.00
300.75	2614.00
301.22	2610.00
301.69	2610.00
302.16	2614.00
302.62	2609.00
303.09	2613.00
303.56	2609.00
304.03	2620.00
304.49	2606.00
304.96	2613.00
305.43	2614.00
305.90	2623.00
306.36	2608.00
306.83	2618.00
307.30	2620.00
307.76	2621.00
308.23	2624.00
308.70	2621.00
309.17	2629.00
309.63	2625.00
310.10	2637.00
310.57	2637.00
311.03	2645.00
311.50	2638.00
311.97	2658.00
312.44	2648.00
312.90	2654.00
313.37	2658.00
313.84	2659.00
314.30	2669.00
314.77	2659.00
315.24	2665.00
315.70	2665.00
316.17	2656.00
316.64	2685.00
317.10	2700.00
317.57	2697.00
318.04	2704.00
318.50	2687.00
318.97	2708.00
319.44	2712.00
319.90	2704.00
320.37	2715.00
320.84	2735.00
321.30	2720.00
321.77	2720.00
322.24	2708.00
322.70	2723.00
323.17	2728.00
323.64	2743.00
324.10	2747.00
324.57	2752.00
325.04	2744.00
325.50	2774.00
325.97	2784.00
326.44	2812.00
326.90	2808.00
327.37	2806.00
327.84	2803.00
328.30	2797.00
328.77	2809.00
329.23	2811.00
329.70	2844.00
330.17	2849.00
330.63	2841.00
331.10	2830.00
331.56	2837.00
332.03	2815.00
332.50	2835.00
332.96	2846.00
333.43	2825.00
333.90	2822.00
334.36	2813.00
334.83	2847.00
335.29	2851.00
335.76	2833.00
336.22	2816.00
336.69	2826.00
337.16	2806.00
337.62	2825.00
338.09	2834.00
338.55	2853.00
339.02	2861.00
339.49	2864.00
339.95	2898.00
340.42	2885.00
340.88	2892.00
341.35	2869.00
341.81	2872.00
342.28	2883.00
342.75	2885.00
343.21	2873.00
343.68	2879.00
344.14	2858.00
344.61	2842.00
345.07	2867.00
345.54	2904.00
346.00	2917.00
346.47	2883.00
346.93	2890.00
347.40	2914.00
347.87	2893.00
348.33	2902.00
348.80	2916.00
349.26	2902.00
349.73	2914.00
350.19	2961.00
350.66	2957.00
351.12	2955.00
351.59	2941.00
352.05	2936.00
352.52	2947.00
352.98	2939.00
353.45	2944.00
353.91	2967.00
354.38	2978.00
354.84	2976.00
355.31	2968.00
355.77	2983.00
356.24	2953.00
356.70	2931.00
357.17	2916.00
357.63	2914.00
358.10	2911.00
358.56	2890.00
359.03	2899.00
359.49	2958.00
359.96	2996.00
360.42	3007.00
360.89	2968.00
361.35	2959.00
361.82	2950.00
362.28	2945.00
362.75	2994.00
363.21	2995.00
363.67	3009.00
364.14	3010.00
364.60	3046.00
365.07	2986.00
365.53	3057.00
366.00	3094.00
366.46	3089.00
366.93	3070.00
367.39	3073.00
367.86	3069.00
368.32	3070.00
368.78	3108.00
369.25	3094.00
369.71	3126.00
370.18	3115.00
370.64	3088.00
371.11	3046.00
371.57	3099.00
372.03	3090.00
372.50	3070.00
372.96	3070.00
373.43	3047.00
373.89	3018.00
374.35	3005.00
374.82	3032.00
375.28	3060.00
375.75	3105.00
376.21	3124.00
376.67	3128.00
377.14	3141.00
377.60	3197.00
378.07	3223.00
378.53	3225.00
378.99	3202.00
379.46	3125.00
379.92	3111.00
380.39	3146.00
380.85	3165.00
381.31	3154.00
381.78	3108.00
382.24	3040.00
382.70	3005.00
383.17	3022.00
383.63	3003.00
384.09	3038.00
384.56	3079.00
385.02	3132.00
385.48	3153.00
385.95	3149.00
386.41	3153.00
386.88	3178.00
387.34	3154.00
387.80	3185.00
388.27	3159.00
388.73	3171.00
389.19	3244.00
389.66	3275.00
390.12	3333.00
390.58	3332.00
391.05	3303.00
391.51	3344.00
391.97	3287.00
392.43	3226.00
392.90	3168.00
393.36	3071.00
393.82	3058.00
394.29	3204.00
394.75	3292.00
395.21	3313.00
395.68	3344.00
396.14	3322.00
396.60	3216.00
397.07	3189.00
397.53	3233.00
397.99	3421.00
398.45	3558.00
398.92	3657.00
399.38	3688.00
399.84	3689.00
400.31	3731.00
400.77	3740.00
401.23	3759.00
401.69	3775.00
402.16	3813.00
402.62	3800.00
403.08	3775.00
403.54	3758.00
404.01	3825.00
404.47	3774.00
404.93	3753.00
405.39	3748.00
405.86	3755.00
406.32	3770.00
406.78	3778.00
407.24	3802.00
407.71	3839.00
408.17	3789.00
408.63	3870.00
409.09	3868.00
409.56	3881.00
410.02	3819.00
410.48	3854.00
410.94	3897.00
411.40	3956.00
411.87	3954.00
412.33	3984.00
412.79	4000.00
413.25	3943.00
413.71	3985.00
414.18	3969.00
414.64	4017.00
415.10	4028.00
415.56	3990.00
416.02	4000.00
416.49	4064.00
416.95	4029.00
417.41	3963.00
417.87	3970.00
418.33	4017.00
418.80	4011.00
419.26	4054.00
419.72	4021.00
420.18	3987.00
420.64	4034.00
421.10	4083.00
421.57	4102.00
422.03	4086.00
422.49	4056.00
422.95	3997.00
423.41	4010.00
423.87	4062.00
424.34	4046.00
424.80	4077.00
425.26	4079.00
425.72	4051.00
426.18	4051.00
426.64	4122.00
427.10	4081.00
427.57	3969.00
428.03	4012.00
428.49	4038.00
428.95	3990.00
429.41	3908.00
429.87	3874.00
430.33	3825.00
430.79	3869.00
431.26	3908.00
431.72	4031.00
432.18	4211.00
432.64	4190.00
433.10	4134.00
433.56	4166.00
434.02	4159.00
434.48	4147.00
434.94	4208.00
435.40	4321.00
435.87	4323.00
436.33	4363.00
436.79	4370.00
437.25	4368.00
437.71	4302.00
438.17	4290.00
438.63	4246.00
439.09	4245.00
439.55	4311.00
440.01	4373.00
440.47	4408.00
440.93	4377.00
441.39	4463.00
441.85	4536.00
442.32	4585.00
442.78	4535.00
443.24	4550.00
443.70	4546.00
444.16	4591.00
444.62	4565.00
445.08	4586.00
445.54	4566.00
446.00	4549.00
446.46	4547.00
446.92	4627.00
447.38	4662.00
447.84	4701.00
448.30	4720.00
448.76	4712.00
449.22	4734.00
449.68	4748.00
450.14	4805.00
450.60	4837.00
451.06	4841.00
451.52	4820.00
451.98	4772.00
452.44	4787.00
452.90	4752.00
453.36	4747.00
453.82	4741.00
454.28	4769.00
454.74	4789.00
455.20	4841.00
455.66	4810.00
456.12	4895.00
456.58	4942.00
457.04	4953.00
457.50	4905.00
457.96	4932.00
458.42	4907.00
458.88	4909.00
459.34	4883.00
459.80	4964.00
460.26	4949.00
460.72	4973.00
461.18	4992.00
461.64	5004.00
462.10	4993.00
462.55	5021.00
463.01	4991.00
463.47	5049.00
463.93	4966.00
464.39	4974.00
464.85	4951.00
465.31	4936.00
465.77	4984.00
466.23	4967.00
466.69	5011.00
467.15	4951.00
467.61	4985.00
468.07	5001.00
468.52	5006.00
468.98	5011.00
469.44	4985.00
469.90	4984.00
470.36	5037.00
470.82	5011.00
471.28	5003.00
471.74	5076.00
472.20	5099.00
472.66	5126.00
473.11	5119.00
473.57	5134.00
474.03	5121.00
474.49	5111.00
474.95	5143.00
475.41	5088.00
475.87	5128.00
476.33	5089.00
476.78	5172.00
477.24	5175.00
477.70	5204.00
478.16	5210.00
478.62	5262.00
479.08	5159.00
479.54	5251.00
479.99	5225.00
480.45	5317.00
480.91	5278.00
481.37	5294.00
481.83	5278.00
482.29	5254.00
482.74	5278.00
483.20	5244.00
483.66	5259.00
484.12	5227.00
484.58	5176.00
485.04	5111.00
485.49	4995.00
485.95	4951.00
486.41	4882.00
486.87	4905.00
487.33	5076.00
487.78	5135.00
488.24	5177.00
488.70	5215.00
489.16	5228.00
489.62	5286.00
490.07	5299.00
490.53	5334.00
490.99	5239.00
491.45	5227.00
491.90	5216.00
492.36	5238.00
492.82	5252.00
493.28	5322.00
493.74	5289.00
494.19	5323.00
494.65	5306.00
495.11	5315.00
495.57	5405.00
496.02	5384.00
496.48	5332.00
496.94	5410.00
497.40	5391.00
497.85	5368.00
498.31	5321.00
498.77	5316.00
499.23	5318.00
499.68	5353.00
500.14	5341.00
500.60	5283.00
501.06	5195.00
501.51	5264.00
501.97	5286.00
502.43	5273.00
502.88	5301.00
503.34	5289.00
503.80	5358.00
504.26	5289.00
504.71	5370.00
505.17	5389.00
505.63	5351.00
506.08	5443.00
506.54	5442.00
507.00	5396.00
507.45	5400.00
507.91	5348.00
508.37	5386.00
508.82	5376.00
509.28	5440.00
509.74	5452.00
510.19	5428.00
510.65	5410.00
511.11	5436.00
511.56	5406.00
512.02	5469.00
512.48	5412.00
512.93	5423.00
513.39	5395.00
513.85	5411.00
514.30	5484.00
514.76	5426.00
515.22	5466.00
515.67	5352.00
516.13	5254.00
516.59	5260.00
517.04	5190.00
517.50	5099.00
517.95	5183.00
518.41	5237.00
518.87	5289.00
519.32	5311.00
519.78	5386.00
520.24	5431.00
520.69	5525.00
521.15	5506.00
521.60	5448.00
522.06	5468.00
522.52	5496.00
522.97	5479.00
523.43	5512.00
523.88	5554.00
524.34	5632.00
524.80	5601.00
525.25	5562.00
525.71	5571.00
526.16	5420.00
526.62	5475.00
527.07	5405.00
527.53	5434.00
527.99	5535.00
528.44	5637.00
528.90	5623.00
529.35	5714.00
529.81	5687.00
530.26	5634.00
530.72	5659.00
531.17	5719.00
531.63	5611.00
532.09	5614.00
532.54	5605.00
533.00	5611.00
533.45	5561.00
533.91	5610.00
534.36	5645.00
534.82	5703.00
535.27	5715.00
535.73	5752.00
536.18	5709.00
536.64	5759.00
537.09	5667.00
537.55	5649.00
538.00	5727.00
538.46	5708.00
538.91	5673.00
539.37	5651.00
539.82	5578.00
540.28	5537.00
540.73	5565.00
541.19	5593.00
541.64	5635.00
542.10	5671.00
542.55	5654.00
543.01	5664.00
543.46	5728.00
543.92	5756.00
544.37	5728.00
544.83	5710.00
545.28	5742.00
545.74	5788.00
546.19	5737.00
546.64	5709.00
547.10	5694.00
547.55	5690.00
548.01	5745.00
548.46	5761.00
548.92	5746.00
549.37	5758.00
549.83	5796.00
550.28	5843.00
550.73	5723.00
551.19	5752.00
551.64	5747.00
552.10	5777.00
552.55	5779.00
553.00	5812.00
553.46	5772.00
553.91	5804.00
554.37	5802.00
554.82	5816.00
555.28	5831.00
555.73	5824.00
556.18	5827.00
556.64	5746.00
557.09	5736.00
557.54	5764.00
558.00	5672.00
558.45	5678.00
558.91	5686.00
559.36	5682.00
559.81	5721.00
560.27	5724.00
560.72	5742.00
561.17	5767.00
561.63	5796.00
562.08	5716.00
562.54	5765.00
562.99	5780.00
563.44	5760.00
563.90	5786.00
564.35	5790.00
564.80	5760.00
565.26	5700.00
565.71	5776.00
566.16	5718.00
566.62	5709.00
567.07	5783.00
567.52	5754.00
567.98	5786.00
568.43	5695.00
568.88	5737.00
569.34	5765.00
569.79	5711.00
570.24	5718.00
570.69	5739.00
571.15	5720.00
571.60	5714.00
572.05	5649.00
572.51	5816.00
572.96	5828.00
573.41	5819.00
573.86	5809.00
574.32	5783.00
574.77	5756.00
575.22	5817.00
575.68	5729.00
576.13	5726.00
576.58	5775.00
577.03	5750.00
577.49	5840.00
577.94	5707.00
578.39	5735.00
578.84	5790.00
579.30	5760.00
579.75	5843.00
580.20	5856.00
580.65	5864.00
581.11	5897.00
581.56	5845.00
582.01	5877.00
582.46	5917.00
582.92	5903.00
583.37	5928.00
583.82	5848.00
584.27	5941.00
584.72	5908.00
585.18	5914.00
585.63	5879.00
586.08	5843.00
586.53	5889.00
586.98	5865.00
587.44	5801.00
587.89	5849.00
588.34	5756.00
588.79	5588.00
589.24	5588.00
589.70	5483.00
590.15	5579.00
590.60	5683.00
591.05	5798.00
591.50	5780.00
591.96	5802.00
592.41	5796.00
592.86	5782.00
593.31	5805.00
593.76	5774.00
594.21	5722.00
594.66	5764.00
595.12	5779.00
595.57	5781.00
596.02	5829.00
596.47	5808.00
596.92	5854.00
597.37	5813.00
597.82	5844.00
598.28	5737.00
598.73	5825.00
599.18	5831.00
599.63	5765.00
600.08	5794.00
600.53	5802.00
600.98	5802.00
601.43	5776.00
601.88	5816.00
602.34	5753.00
602.79	5834.00
603.24	5861.00
603.69	5864.00
604.14	5844.00
604.59	5896.00
605.04	5895.00
605.49	5876.00
605.94	5879.00
606.39	5895.00
606.84	5821.00
607.30	5920.00
607.75	5907.00
608.20	5811.00
608.65	5840.00
609.10	5785.00
609.55	5866.00
610.00	5802.00
610.45	5920.00
610.90	5887.00
611.35	5893.00
611.80	5890.00
612.25	5797.00
612.70	5798.00
613.15	5754.00
613.60	5840.00
614.05	5824.00
614.50	5839.00
614.95	5747.00
615.40	5822.00
615.85	5771.00
616.30	5705.00
616.75	5759.00
617.20	5771.00
617.65	5813.00
618.10	5887.00
618.55	5876.00
619.00	5919.00
619.45	5911.00
619.90	5920.00
620.35	5903.00
620.80	5840.00
621.25	5937.00
621.70	5830.00
622.15	5876.00
622.60	5811.00
623.05	5902.00
623.50	5842.00
623.95	5836.00
624.40	5745.00
624.85	5772.00
625.30	5687.00
625.75	5763.00
626.20	5778.00
626.65	5885.00
627.10	5897.00
627.55	5733.00
627.99	5765.00
628.44	5725.00
628.89	5749.00
629.34	5733.00
629.79	5737.00
630.24	5756.00
630.69	5748.00
631.14	5741.00
631.59	5750.00
632.04	5744.00
632.49	5797.00
632.94	5825.00
633.38	5889.00
633.83	5836.00
634.28	5828.00
634.73	5830.00
635.18	5868.00
635.63	5851.00
636.08	5945.00
636.53	5935.00
636.97	5887.00
637.42	5920.00
637.87	5937.00
638.32	5963.00
638.77	5994.00
639.22	5940.00
639.67	5907.00
640.11	5906.00
640.56	5902.00
641.01	5896.00
641.46	5844.00
641.91	5923.00
642.36	5889.00
642.81	5956.00
643.25	5934.00
643.70	5930.00
644.15	5927.00
644.60	5931.00
645.05	5883.00
645.49	5910.00
645.94	5836.00
646.39	5855.00
646.84	5812.00
647.29	5861.00
647.73	5807.00
648.18	5811.00
648.63	5780.00
649.08	5800.00
649.53	5722.00
649.97	5783.00
650.42	5824.00
650.87	5895.00
651.32	5909.00
651.77	5843.00
652.21	5803.00
652.66	5825.00
653.11	5887.00
653.56	5890.00
654.00	5788.00
654.45	5805.00
654.90	5806.00
655.35	5701.00
655.79	5547.00
656.24	5402.00
656.69	5295.00
657.14	5491.00
657.58	5654.00
658.03	5799.00
658.48	5768.00
658.92	5807.00
659.37	5867.00
659.82	5828.00
660.27	5865.00
660.71	5841.00
661.16	5839.00
661.61	5914.00
662.05	5939.00
662.50	5919.00
662.95	5878.00
663.39	5895.00
663.84	5859.00
664.29	5916.00
664.74	5928.00
665.18	5904.00
665.63	5906.00
666.08	5899.00
666.52	5843.00
666.97	5881.00
667.42	5822.00
667.86	5853.00
668.31	5929.00
668.76	5891.00
669.20	5905.00
669.65	5927.00
670.09	5897.00
670.54	5847.00
670.99	5892.00
671.43	5855.00
671.88	5819.00
672.33	5854.00
672.77	5855.00
673.22	5837.00
673.66	5876.00
674.11	5825.00
674.56	5867.00
675.00	5844.00
675.45	5816.00
675.90	5866.00
676.34	5832.00
676.79	5827.00
677.23	5836.00
677.68	5826.00
678.12	5826.00
678.57	5794.00
679.02	5872.00
679.46	5793.00
679.91	5886.00
680.35	5853.00
680.80	5836.00
681.25	5766.00
681.69	5796.00
682.14	5814.00
682.58	5813.00
683.03	5774.00
683.47	5743.00
683.92	5810.00
684.36	5726.00
684.81	5722.00
685.25	5782.00
685.70	5701.00
686.15	5664.00
686.59	5508.00
687.04	5022.00
687.48	4881.00
687.93	4984.00
688.37	5179.00
688.82	5200.00
689.26	5218.00
689.71	5219.00
690.15	5278.00
690.60	5238.00
691.04	5354.00
691.49	5448.00
691.93	5509.00
692.38	5475.00
692.82	5554.00
693.27	5518.00
693.71	5465.00
694.16	5466.00
694.60	5428.00
695.04	5533.00
695.49	5510.00
695.93	5463.00
696.38	5562.00
696.82	5599.00
697.27	5666.00
697.71	5584.00
698.16	5590.00
698.60	5548.00
699.04	5523.00
699.49	5495.00
699.93	5512.00
700.38	5482.00
700.82	5507.00
701.27	5544.00
701.71	5473.00
702.15	5451.00
702.60	5404.00
703.04	5464.00
703.49	5432.00
703.93	5548.00
704.37	5543.00
704.82	5573.00
705.26	5583.00
705.71	5578.00
706.15	5588.00
706.59	5581.00
707.04	5605.00
707.48	5526.00
707.93	5546.00
708.37	5600.00
708.81	5564.00
709.26	5530.00
709.70	5573.00
710.14	5588.00
710.59	5562.00
711.03	5513.00
711.47	5526.00
711.92	5577.00
712.36	5542.00
712.80	5491.00
713.25	5524.00
713.69	5570.00
714.13	5507.00
714.58	5540.00
715.02	5441.00
715.46	5401.00
715.91	5434.00
716.35	5358.00
716.79	5166.00
717.24	5025.00
717.68	4873.00
718.12	4866.00
718.57	4704.00
719.01	4715.00
719.45	4699.00
719.89	4727.00
720.34	4698.00
720.78	4800.00
721.22	4979.00
721.66	5141.00
722.11	5185.00
722.55	5144.00
722.99	5099.00
723.44	4940.00
723.88	4868.00
724.32	4801.00
724.76	4856.00
725.21	4852.00
725.65	4893.00
726.09	4893.00
726.53	4892.00
726.97	4953.00
727.42	4931.00
727.86	4833.00
728.30	4868.00
728.74	4941.00
729.19	4862.00
729.63	4873.00
730.07	4955.00
730.51	4990.00
730.95	4956.00
731.40	4985.00
731.84	4993.00
732.28	5094.00
732.72	5190.00
733.16	5139.00
733.61	5207.00
734.05	5214.00
734.49	5244.00
734.93	5232.00
735.37	5247.00
735.81	5178.00
736.26	5266.00
736.70	5186.00
737.14	5172.00
737.58	5211.00
738.02	5249.00
738.46	5216.00
738.90	5132.00
739.35	5184.00
739.79	5207.00
740.23	5303.00
740.67	5281.00
741.11	5160.00
741.55	5246.00
741.99	5241.00
742.44	5185.00
742.88	5296.00
743.32	5244.00
743.76	5272.00
744.20	5288.00
744.64	5259.00
745.08	5212.00
745.52	5290.00
745.96	5320.00
746.40	5286.00
746.84	5323.00
747.29	5348.00
747.73	5302.00
748.17	5233.00
748.61	5238.00
749.05	5290.00
749.49	5277.00
749.93	5300.00
750.37	5274.00
750.81	5249.00
751.25	5278.00
751.69	5313.00
752.13	5257.00
752.57	5329.00
753.01	5269.00
753.45	5273.00
753.89	5270.00
754.33	5264.00
754.77	5196.00
755.21	5290.00
755.65	5287.00
756.09	5281.00
756.53	5244.00
756.97	5272.00
757.41	5245.00
757.85	5228.00
758.29	5181.00
758.73	5141.00
759.17	5009.00
759.61	4380.00
760.05	3612.00
760.49	3177.00
760.93	3053.00
761.37	3244.00
761.81	3721.00
762.25	3927.00
762.69	3787.00
763.13	3621.00
763.57	3645.00
764.01	3738.00
764.45	3861.00
764.89	4045.00
765.33	4157.00
765.77	4341.00
766.21	4480.00
766.65	4663.00
767.09	4761.00
767.53	4939.00
767.96	4971.00
768.40	5051.00
768.84	5064.00
769.28	5030.00
769.72	5048.00
770.16	5063.00
770.60	5157.00
771.04	5142.00
771.48	5134.00
771.92	5166.00
772.35	5123.00
772.79	5186.00
773.23	5168.00
773.67	5150.00
774.11	5176.00
774.55	5150.00
774.99	5062.00
775.43	5077.00
775.86	5118.00
776.30	5118.00
776.74	5155.00
777.18	5146.00
777.62	5138.00
778.06	5104.00
778.50	5100.00
778.93	5079.00
779.37	5107.00
779.81	5059.00
780.25	5034.00
780.69	5043.00
781.12	5002.00
781.56	5035.00
782.00	5022.00
782.44	5123.00
782.88	5072.00
783.32	5043.00
783.75	5011.00
784.19	5035.00
784.63	4996.00
785.07	4968.00
785.50	4981.00
785.94	4996.00
786.38	4950.00
786.82	4975.00
787.26	4953.00
787.69	4921.00
788.13	4918.00
788.57	4948.00
789.01	4898.00
789.44	4861.00
789.88	4877.00
790.32	4855.00
790.76	4876.00
791.19	4843.00
791.63	4799.00
792.07	4861.00
792.51	4803.00
792.94	4781.00
793.38	4841.00
793.82	4864.00
794.25	4821.00
794.69	4831.00
795.13	4833.00
795.56	4852.00
796.00	4751.00
796.44	4724.00
796.88	4725.00
797.31	4808.00
797.75	4788.00
798.19	4772.00
798.62	4751.00
799.06	4703.00
799.50	4798.00
799.93	4755.00
800.37	4706.00
800.81	4772.00
801.24	4742.00
801.68	4727.00
802.12	4733.00
802.55	4698.00
802.99	4672.00
803.43	4672.00
803.86	4707.00
804.30	4647.00
804.73	4647.00
805.17	4687.00
805.61	4706.00
806.04	4724.00
806.48	4714.00
806.92	4698.00
807.35	4668.00
807.79	4706.00
808.22	4709.00
808.66	4565.00
809.10	4641.00
809.53	4576.00
809.97	4586.00
810.40	4589.00
810.84	4567.00
811.27	4563.00
811.71	4559.00
812.15	4547.00
812.58	4495.00
813.02	4436.00
813.45	4359.00
813.89	4328.00
814.32	4326.00
814.76	4243.00
815.19	4183.00
815.63	4203.00
816.07	4181.00
816.50	4024.00
816.94	4110.00
817.37	4223.00
817.81	4136.00
818.24	4094.00
818.68	4206.00
819.11	4221.00
819.55	4175.00
819.98	4202.00
820.42	4291.00
820.85	4354.00
821.29	4370.00
821.72	4344.00
822.16	4233.00
822.59	4044.00
823.03	3851.00
823.46	3960.00
823.90	4147.00
824.33	4268.00
824.77	4356.00
825.20	4392.00
825.63	4272.00
826.07	4307.00
826.50	4367.00
826.94	4358.00
827.37	4213.00
827.81	4155.00
828.24	4160.00
828.68	4245.00
829.11	4218.00
829.54	4195.00
829.98	4264.00
830.41	4208.00
830.85	4257.00
831.28	4260.00
831.71	4266.00
832.15	4198.00
832.58	4268.00
833.02	4291.00
833.45	4237.00
833.88	4232.00
834.32	4257.00
834.75	4292.00
835.19	4309.00
835.62	4327.00
836.05	4282.00
836.49	4347.00
836.92	4349.00
837.35	4380.00
837.79	4378.00
838.22	4377.00
838.66	4362.00
839.09	4362.00
839.52	4394.00
839.96	4437.00
840.39	4418.00
840.82	4366.00
841.26	4344.00
841.69	4324.00
842.12	4369.00
842.56	4351.00
842.99	4346.00
843.42	4283.00
843.85	4312.00
844.29	4371.00
844.72	4414.00
845.15	4404.00
845.59	4396.00
846.02	4476.00
846.45	4403.00
846.88	4410.00
847.32	4380.00
847.75	4339.00
848.18	4342.00
848.62	4359.00
849.05	4337.00
849.48	4249.00
849.91	4182.00
850.35	4263.00
850.78	4335.00
851.21	4347.00
851.64	4322.00
852.08	4349.00
852.51	4378.00
852.94	4361.00
853.37	4304.00
853.80	4151.00
854.24	3977.00
854.67	4048.00
855.10	4231.00
855.53	4233.00
855.97	4279.00
856.40	4278.00
856.83	4296.00
857.26	4332.00
857.69	4338.00
858.13	4296.00
858.56	4368.00
858.99	4360.00
859.42	4345.00
859.85	4366.00
860.28	4350.00
860.72	4358.00
861.15	4332.00
861.58	4301.00
862.01	4345.00
862.44	4310.00
862.87	4299.00
863.30	4286.00
863.74	4314.00
864.17	4309.00
864.60	4299.00
865.03	4288.00
865.46	4248.00
865.89	4100.00
866.32	4011.00
866.75	4164.00
867.19	4273.00
867.62	4306.00
868.05	4319.00
868.48	4306.00
868.91	4250.00
869.34	4251.00
869.77	4322.00
870.20	4265.00
870.63	4223.00
871.06	4220.00
871.49	4201.00
871.93	4218.00
872.36	4242.00
872.79	4235.00
873.22	4224.00
873.65	4218.00
874.08	4204.00
874.51	4227.00
874.94	4225.00
875.37	4229.00
875.80	4235.00
876.23	4226.00
876.66	4254.00
877.09	4221.00
877.52	4175.00
877.95	4205.00
878.38	4178.00
878.81	4192.00
879.24	4161.00
879.67	4231.00
880.10	4166.00
880.53	4146.00
880.96	4220.00
881.39	4218.00
881.82	4232.00
882.25	4168.00
882.68	4242.00
883.11	4247.00
883.54	4245.00
883.97	4248.00
884.40	4211.00
884.83	4199.00
885.26	4139.00
885.69	4157.00
886.12	4130.00
886.55	4118.00
886.98	4176.00
887.40	4203.00
887.83	4115.00
888.26	4149.00
888.69	4236.00
889.12	4153.00
889.55	4211.00
889.98	4155.00
890.41	4218.00
890.84	4151.00
891.27	4165.00
891.70	4159.00
892.12	4139.00
892.55	4101.00
892.98	4082.00
893.41	4082.00
893.84	4029.00
894.27	4029.00
894.70	3961.00
895.13	3900.00
895.55	3892.00
895.98	3892.00
896.41	3784.00
896.84	3796.00
897.27	3776.00
897.70	3815.00
898.13	3789.00
898.55	3610.00
898.98	3612.00
899.41	3801.00
899.84	3726.00
900.27	3688.00
900.70	3697.00
901.12	3684.00
901.55	3680.00
901.98	3686.00
902.41	3699.00
902.84	3822.00
903.26	3909.00
903.69	3890.00
904.12	3884.00
904.55	3937.00
904.97	3902.00
905.40	3907.00
905.83	3823.00
906.26	3758.00
906.69	3706.00
907.11	3674.00
907.54	3666.00
907.97	3692.00
908.40	3607.00
908.82	3621.00
909.25	3629.00
909.68	3652.00
910.10	3625.00
910.53	3676.00
910.96	3771.00
911.39	3642.00
911.81	3670.00
912.24	3690.00
912.67	3555.00
913.09	3490.00
913.52	3563.00
913.95	3657.00
914.38	3709.00
914.80	3543.00
915.23	3516.00
915.66	3614.00
916.08	3720.00
916.51	3680.00
916.94	3571.00
917.36	3574.00
917.79	3620.00
918.22	3694.00
918.64	3683.00
919.07	3676.00
919.50	3687.00
919.92	3799.00
920.35	3723.00
920.78	3705.00
921.20	3655.00
921.63	3715.00
922.05	3694.00
922.48	3658.00
922.91	3630.00
923.33	3625.00
923.76	3629.00
924.18	3632.00
924.61	3641.00
925.04	3632.00
925.46	3608.00
925.89	3633.00
926.31	3659.00
926.74	3593.00
927.17	3508.00
927.59	3416.00
928.02	3381.00
928.44	3349.00
928.87	3303.00
929.29	3234.00
929.72	3199.00
930.15	3191.00
930.57	3134.00
931.00	3101.00
931.42	3006.00
931.85	2950.00
932.27	2954.00
932.70	2937.00
933.12	2867.00
933.55	2856.00
933.97	2839.00
934.40	2963.00
934.82	2923.00
935.25	2866.00
935.67	2899.00
936.10	2863.00
936.52	2831.00
936.95	2847.00
937.37	2842.00
937.80	2862.00
938.22	2944.00
938.65	3018.00
939.07	3032.00
939.50	2982.00
939.92	2945.00
940.35	2932.00
940.77	2940.00
941.19	2932.00
941.62	2923.00
942.04	2886.00
942.47	2861.00
942.89	2919.00
943.32	2849.00
943.74	2837.00
944.16	2899.00
944.59	2915.00
945.01	2850.00
945.44	2847.00
945.86	2879.00
946.29	2885.00
946.71	2902.00
947.13	2902.00
947.56	2888.00
947.98	2930.00
948.40	2981.00
948.83	2920.00
949.25	2845.00
949.68	2909.00
950.10	2987.00
950.52	3032.00
950.95	2973.00
951.37	2877.00
951.79	2876.00
952.22	2939.00
952.64	3011.00
953.06	3011.00
953.49	2983.00
953.91	2964.00
954.33	2998.00
954.76	2955.00
955.18	2987.00
955.60	3012.00
956.03	2974.00
956.45	3045.00
956.87	3126.00
957.30	3078.00
957.72	3039.00
958.14	2991.00
958.56	2972.00
958.99	3026.00
959.41	3082.00
959.83	3060.00
960.26	3132.00
960.68	3143.00
961.10	3123.00
961.52	3073.00
961.95	3121.00
962.37	3175.00
962.79	3145.00
963.21	3157.00
963.64	3132.00
964.06	3174.00
964.48	3206.00
964.90	3196.00
965.32	3140.00
965.75	3166.00
966.17	3206.00
966.59	3300.00
967.01	3320.00
967.44	3301.00
967.86	3367.00
968.28	3363.00
968.70	3375.00
969.12	3353.00
969.54	3351.00
969.97	3351.00
970.39	3369.00
970.81	3335.00
971.23	3358.00
971.65	3326.00
972.07	3337.00
972.50	3290.00
972.92	3265.00
973.34	3283.00
973.76	3268.00
974.18	3307.00
974.60	3284.00
975.02	3270.00
975.45	3250.00
975.87	3288.00
976.29	3324.00
976.71	3327.00
977.13	3299.00
977.55	3317.00
977.97	3330.00
978.39	3295.00
978.81	3339.00
979.24	3298.00
979.66	3348.00
980.08	3339.00
980.50	3345.00
980.92	3326.00
981.34	3359.00
981.76	3331.00
982.18	3356.00
982.60	3380.00
983.02	3371.00
983.44	3331.00
983.86	3342.00
984.28	3336.00
984.70	3404.00
985.12	3358.00
985.54	3341.00
985.96	3342.00
986.38	3288.00
986.80	3364.00
987.23	3373.00
987.65	3333.00
988.07	3364.00
988.49	3316.00
988.91	3382.00
989.33	3367.00
989.74	3342.00
990.16	3345.00
990.58	3339.00
991.00	3331.00
991.42	3337.00
991.84	3346.00
992.26	3350.00
992.68	3331.00
993.10	3320.00
993.52	3327.00
993.94	3296.00
994.36	3324.00
994.78	3297.00
995.20	3328.00
995.62	3334.00
996.04	3313.00
996.46	3335.00
996.88	3334.00
997.30	3320.00
997.71	3315.00
998.13	3335.00
998.55	3336.00
998.97	3323.00
999.39	3347.00
999.81	3322.00
1000.23	3345.00
1000.65	3343.00
1001.07	3344.00
1001.49	3314.00
1001.90	3315.00
1002.32	3320.00
1002.74	3339.00
1003.16	3298.00
1003.58	3305.00
1004.00	3299.00
1004.42	3289.00
1004.83	3316.00
1005.25	3292.00
1005.67	3297.00
1006.09	3297.00
1006.51	3282.00
1006.92	3281.00
1007.34	3279.00
1007.76	3275.00
1008.18	3276.00
1008.60	3275.00
1009.02	3276.00
1009.43	3291.00
1009.85	3275.00
1010.27	3272.00
1010.69	3279.00
1011.10	3259.00
1011.52	3253.00
1011.94	3267.00
1012.36	3256.00
1012.78	3239.00
1013.19	3245.00
1013.61	3248.00
1014.03	3229.00
1014.45	3206.00
1014.86	3195.00
1015.28	3206.00
1015.70	3198.00
1016.12	3183.00
1016.53	3197.00
1016.95	3170.00
1017.37	3167.00
1017.78	3164.00
1018.20	3191.00
1018.62	3183.00
1019.03	3169.00
1019.45	3173.00
1019.87	3154.00
1020.29	3192.00
1020.70	3141.00
1021.12	3137.00
1021.54	3154.00
1021.95	3126.00
1022.37	3132.00
1022.79	3122.00
1023.20	3119.00
1023.62	3085.00
1024.04	3108.00
1024.45	3142.00
1024.87	3102.00
1025.28	3109.00
1025.70	3115.00
1026.12	3104.00
1026.53	3066.00
1026.95	3081.00
1027.37	3060.00
1027.78	3083.00
1028.20	3078.00
1028.61	3065.00
1029.03	3069.00
1029.45	3039.00
1029.86	3059.00
1030.28	3028.00
1030.69	3048.00
1031.11	3015.00
1031.53	3005.00
1031.94	3030.00
1032.36	3016.00
1032.77	3018.00
1033.19	2994.00
1033.60	3012.00
1034.02	2995.00
1034.43	2997.00
1034.85	3005.00
1035.27	2986.00
1035.68	2984.00
1036.10	2998.00
1036.51	2984.00
1036.93	2972.00
1037.34	2967.00
1037.76	2955.00
1038.17	2973.00
1038.59	2967.00
1039.00	2972.00
1039.42	2960.00
1039.83	2948.00
1040.25	2919.00
1040.66	2954.00
1041.08	2933.00
1041.49	2940.00
1041.91	2935.00
1042.32	2932.00
1042.73	2929.00
1043.15	2935.00
1043.56	2923.00
1043.98	2903.00
1044.39	2901.00
1044.81	2888.00
1045.22	2891.00
1045.64	2899.00
1046.05	2897.00
1046.46	2903.00
1046.88	2886.00
1047.29	2892.00
1047.71	2897.00
1048.12	2869.00
1048.53	2869.00
1048.95	2869.00
1049.36	2881.00
1049.78	2864.00
1050.19	2864.00
1050.60	2861.00
1051.02	2864.00
1051.43	2841.00
1051.85	2843.00
1052.26	2843.00
1052.67	2839.00
1053.09	2840.00
1053.50	2839.00
1053.91	2832.00
1054.33	2824.00
1054.74	2818.00
1055.15	2814.00
1055.57	2810.00
1055.98	2819.00
1056.39	2818.00
1056.81	2810.00
1057.22	2796.00
1057.63	2810.00
1058.05	2792.00
1058.46	2790.00
1058.87	2803.00
1059.28	2779.00
1059.70	2795.00
1060.11	2782.00
1060.52	2776.00
1060.94	2772.00
1061.35	2776.00
1061.76	2780.00
1062.17	2765.00
1062.59	2763.00
1063.00	2766.00
1063.41	2788.00
1063.82	2778.00
1064.24	2750.00
1064.65	2757.00
1065.06	2757.00
1065.47	2763.00
1065.89	2763.00
1066.30	2746.00
1066.71	2756.00
1067.12	2745.00
1067.53	2746.00
1067.95	2731.00
1068.36	2739.00
1068.77	2733.00
1069.18	2734.00
1069.59	2731.00
1070.00	2716.00
1070.42	2739.00
1070.83	2730.00
1071.24	2720.00
1071.65	2718.00
1072.06	2731.00
1072.47	2726.00
1072.89	2708.00
1073.30	2722.00
1073.71	2720.00
1074.12	2712.00
1074.53	2709.00
1074.94	2726.00
1075.35	2698.00
1075.77	2707.00
1076.18	2708.00
1076.59	2710.00
1077.00	2682.00
1077.41	2702.00
1077.82	2697.00
1078.23	2699.00
1078.64	2689.00
1079.05	2696.00
1079.46	2692.00
1079.87	2683.00
1080.29	2711.00
1080.70	2684.00
1081.11	2692.00
1081.52	2692.00
1081.93	2691.00
1082.34	2686.00
1082.75	2694.00
1083.16	2682.00
1083.57	2687.00
1083.98	2676.00
1084.39	2674.00
1084.80	2677.00
1085.21	2680.00
1085.62	2668.00
1086.03	2691.00
1086.44	2665.00
1086.85	2666.00
1087.26	2660.00
1087.67	2667.00
1088.08	2657.00
1088.49	2659.00
1088.90	2662.00
1089.31	2667.00
1089.72	2665.00
1090.13	2661.00
1090.54	2659.00
1090.95	2653.00
1091.36	2652.00
1091.77	2654.00
1092.18	2658.00
1092.59	2655.00
1093.00	2648.00
1093.40	2646.00
1093.81	2648.00
1094.22	2650.00
1094.63	2645.00
1095.04	2637.00
1095.45	2649.00
1095.86	2656.00
1096.27	2635.00
1096.68	2644.00
1097.09	2633.00
1097.50	2638.00
1097.90	2630.00
1098.31	2634.00
1098.72	2641.00
1099.13	2625.00
1099.54	2634.00
1099.95	2630.00
1100.36	2627.00
1100.76	2634.00
1101.17	2630.00
1101.58	2627.00
1101.99	2625.00
1102.40	2628.00
1102.81	2627.00
1103.22	2617.00
1103.62	2615.00
1104.03	2621.00
1104.44	2622.00
1104.85	2626.00
1105.26	2619.00
1105.66	2618.00
1106.07	2619.00
1106.48	2620.00
1106.89	2618.00
1107.30	2620.00
1107.70	2611.00
1108.11	2610.00
1108.52	2608.00
1108.93	2611.00
1109.33	2606.00
1109.74	2607.00
1110.15	2608.00
1110.56	2607.00
1110.96	2606.00
1111.37	2606.00
1111.78	2612.00
1112.19	2609.00
1112.59	2617.00
1113.00	2609.00
1113.41	2603.00
1113.81	2611.00
1114.22	2606.00
1114.63	2572.00
1115.03	2570.00
1115.44	2576.00
1115.85	2571.00
>>>>>End Processed Spectral Data<<<<<
