SpectraSuite Data File
++++++++++++++++++++++++++++++++++++
Date: Thu Aug 05 10:45:32 EEST 2021
User: CanSEE
Dark Spectrum Present: No
Reference Spectrum Present: No
Number of Sampled Component Spectra: 1
Spectrometers: MAYP112785
Integration Time (usec): 10000 (MAYP112785)
Spectra Averaged: 1 (MAYP112785)
Boxcar Smoothing: 0 (MAYP112785)
Correct for Electrical Dark: No (MAYP112785)
Strobe/Lamp Enabled: No (MAYP112785)
Correct for Detector Non-linearity: No (MAYP112785)
Correct for Stray Light: No (MAYP112785)
Number of Pixels in Processed Spectrum: 2068
>>>>>Begin Processed Spectral Data<<<<<
198.35	3480.00
198.82	2484.00
199.30	2589.00
199.77	2571.00
200.24	2596.00
200.71	2604.00
201.18	2597.00
201.65	2616.00
202.13	2608.00
202.60	2609.00
203.07	2610.00
203.54	2601.00
204.01	2609.00
204.48	2607.00
204.96	2606.00
205.43	2600.00
205.90	2610.00
206.37	2609.00
206.84	2607.00
207.31	2608.00
207.78	2599.00
208.26	2601.00
208.73	2604.00
209.20	2611.00
209.67	2605.00
210.14	2608.00
210.61	2606.00
211.08	2608.00
211.56	2605.00
212.03	2605.00
212.50	2600.00
212.97	2599.00
213.44	2600.00
213.91	2608.00
214.38	2602.00
214.85	2601.00
215.33	2602.00
215.80	2605.00
216.27	2604.00
216.74	2604.00
217.21	2606.00
217.68	2610.00
218.15	2607.00
218.62	2611.00
219.09	2602.00
219.57	2603.00
220.04	2601.00
220.51	2609.00
220.98	2600.00
221.45	2607.00
221.92	2603.00
222.39	2609.00
222.86	2607.00
223.33	2607.00
223.80	2608.00
224.27	2599.00
224.74	2603.00
225.22	2606.00
225.69	2601.00
226.16	2606.00
226.63	2607.00
227.10	2606.00
227.57	2607.00
228.04	2606.00
228.51	2612.00
228.98	2597.00
229.45	2608.00
229.92	2607.00
230.39	2610.00
230.86	2604.00
231.33	2603.00
231.80	2607.00
232.27	2606.00
232.75	2607.00
233.22	2605.00
233.69	2605.00
234.16	2600.00
234.63	2611.00
235.10	2611.00
235.57	2606.00
236.04	2603.00
236.51	2604.00
236.98	2605.00
237.45	2608.00
237.92	2606.00
238.39	2597.00
238.86	2607.00
239.33	2668.00
239.80	2608.00
240.27	2603.00
240.74	2606.00
241.21	2604.00
241.68	2602.00
242.15	2605.00
242.62	2601.00
243.09	2612.00
243.56	2603.00
244.03	2605.00
244.50	2609.00
244.97	2605.00
245.44	2618.00
245.91	2606.00
246.38	2607.00
246.85	2614.00
247.32	2607.00
247.79	2611.00
248.26	2614.00
248.73	2611.00
249.20	2615.00
249.67	2607.00
250.14	2606.00
250.61	2603.00
251.08	2613.00
251.55	2609.00
252.02	2605.00
252.49	2610.00
252.96	2603.00
253.43	2604.00
253.90	2613.00
254.37	2612.00
254.84	2604.00
255.31	2612.00
255.77	2609.00
256.24	2608.00
256.71	2609.00
257.18	2609.00
257.65	2607.00
258.12	2604.00
258.59	2614.00
259.06	2605.00
259.53	2605.00
260.00	2607.00
260.47	2611.00
260.94	2609.00
261.41	2603.00
261.88	2610.00
262.35	2606.00
262.81	2607.00
263.28	2615.00
263.75	2613.00
264.22	2610.00
264.69	2612.00
265.16	2602.00
265.63	2605.00
266.10	2613.00
266.57	2611.00
267.04	2608.00
267.51	2603.00
267.97	2606.00
268.44	2602.00
268.91	2607.00
269.38	2609.00
269.85	2608.00
270.32	2612.00
270.79	2605.00
271.26	2612.00
271.73	2603.00
272.19	2609.00
272.66	2603.00
273.13	2608.00
273.60	2607.00
274.07	2609.00
274.54	2603.00
275.01	2609.00
275.48	2605.00
275.94	2607.00
276.41	2617.00
276.88	2614.00
277.35	2603.00
277.82	2616.00
278.29	2610.00
278.76	2612.00
279.22	2604.00
279.69	2605.00
280.16	2605.00
280.63	2608.00
281.10	2605.00
281.57	2601.00
282.04	2608.00
282.50	2606.00
282.97	2607.00
283.44	2613.00
283.91	2607.00
284.38	2600.00
284.85	2611.00
285.31	2603.00
285.78	2609.00
286.25	2607.00
286.72	2604.00
287.19	2614.00
287.65	2607.00
288.12	2615.00
288.59	2604.00
289.06	2603.00
289.53	2606.00
289.99	2606.00
290.46	2604.00
290.93	2610.00
291.40	2609.00
291.87	2605.00
292.33	2606.00
292.80	2608.00
293.27	2614.00
293.74	2609.00
294.21	2607.00
294.67	2605.00
295.14	2605.00
295.61	2601.00
296.08	2606.00
296.54	2606.00
297.01	2600.00
297.48	2608.00
297.95	2604.00
298.42	2607.00
298.88	2606.00
299.35	2608.00
299.82	2609.00
300.29	2606.00
300.75	2606.00
301.22	2603.00
301.69	2611.00
302.16	2607.00
302.62	2602.00
303.09	2612.00
303.56	2609.00
304.03	2608.00
304.49	2615.00
304.96	2611.00
305.43	2614.00
305.90	2613.00
306.36	2619.00
306.83	2615.00
307.30	2618.00
307.76	2618.00
308.23	2620.00
308.70	2620.00
309.17	2622.00
309.63	2635.00
310.10	2630.00
310.57	2638.00
311.03	2632.00
311.50	2654.00
311.97	2644.00
312.44	2652.00
312.90	2656.00
313.37	2654.00
313.84	2668.00
314.30	2651.00
314.77	2660.00
315.24	2660.00
315.70	2667.00
316.17	2672.00
316.64	2685.00
317.10	2684.00
317.57	2700.00
318.04	2690.00
318.50	2690.00
318.97	2700.00
319.44	2692.00
319.90	2700.00
320.37	2714.00
320.84	2721.00
321.30	2706.00
321.77	2712.00
322.24	2712.00
322.70	2724.00
323.17	2723.00
323.64	2722.00
324.10	2752.00
324.57	2763.00
325.04	2769.00
325.50	2758.00
325.97	2775.00
326.44	2798.00
326.90	2800.00
327.37	2799.00
327.84	2795.00
328.30	2803.00
328.77	2813.00
329.23	2819.00
329.70	2847.00
330.17	2835.00
330.63	2863.00
331.10	2825.00
331.56	2831.00
332.03	2839.00
332.50	2831.00
332.96	2831.00
333.43	2817.00
333.90	2813.00
334.36	2818.00
334.83	2833.00
335.29	2828.00
335.76	2848.00
336.22	2819.00
336.69	2795.00
337.16	2833.00
337.62	2829.00
338.09	2836.00
338.55	2861.00
339.02	2852.00
339.49	2874.00
339.95	2865.00
340.42	2880.00
340.88	2881.00
341.35	2865.00
341.81	2891.00
342.28	2890.00
342.75	2901.00
343.21	2874.00
343.68	2882.00
344.14	2871.00
344.61	2843.00
345.07	2873.00
345.54	2912.00
346.00	2909.00
346.47	2892.00
346.93	2902.00
347.40	2929.00
347.87	2891.00
348.33	2911.00
348.80	2884.00
349.26	2926.00
349.73	2914.00
350.19	2922.00
350.66	2957.00
351.12	2946.00
351.59	2932.00
352.05	2939.00
352.52	2909.00
352.98	2924.00
353.45	2968.00
353.91	2983.00
354.38	2983.00
354.84	2989.00
355.31	2981.00
355.77	2966.00
356.24	2946.00
356.70	2948.00
357.17	2903.00
357.63	2913.00
358.10	2918.00
358.56	2899.00
359.03	2929.00
359.49	2958.00
359.96	2983.00
360.42	2994.00
360.89	2973.00
361.35	2956.00
361.82	2976.00
362.28	2966.00
362.75	3000.00
363.21	3001.00
363.67	3005.00
364.14	3005.00
364.60	3038.00
365.07	3018.00
365.53	3040.00
366.00	3080.00
366.46	3114.00
366.93	3095.00
367.39	3085.00
367.86	3076.00
368.32	3068.00
368.78	3078.00
369.25	3094.00
369.71	3128.00
370.18	3101.00
370.64	3108.00
371.11	3078.00
371.57	3099.00
372.03	3090.00
372.50	3050.00
372.96	3022.00
373.43	3045.00
373.89	3016.00
374.35	3011.00
374.82	3045.00
375.28	3059.00
375.75	3088.00
376.21	3099.00
376.67	3113.00
377.14	3139.00
377.60	3188.00
378.07	3228.00
378.53	3250.00
378.99	3204.00
379.46	3152.00
379.92	3141.00
380.39	3139.00
380.85	3148.00
381.31	3140.00
381.78	3130.00
382.24	3074.00
382.70	3032.00
383.17	2977.00
383.63	3010.00
384.09	3044.00
384.56	3100.00
385.02	3154.00
385.48	3138.00
385.95	3141.00
386.41	3111.00
386.88	3154.00
387.34	3177.00
387.80	3146.00
388.27	3199.00
388.73	3207.00
389.19	3240.00
389.66	3285.00
390.12	3344.00
390.58	3328.00
391.05	3292.00
391.51	3349.00
391.97	3288.00
392.43	3221.00
392.90	3184.00
393.36	3058.00
393.82	3093.00
394.29	3166.00
394.75	3266.00
395.21	3316.00
395.68	3321.00
396.14	3329.00
396.60	3245.00
397.07	3182.00
397.53	3239.00
397.99	3425.00
398.45	3560.00
398.92	3632.00
399.38	3684.00
399.84	3714.00
400.31	3716.00
400.77	3743.00
401.23	3795.00
401.69	3762.00
402.16	3770.00
402.62	3790.00
403.08	3802.00
403.54	3756.00
404.01	3793.00
404.47	3778.00
404.93	3767.00
405.39	3770.00
405.86	3767.00
406.32	3772.00
406.78	3733.00
407.24	3809.00
407.71	3834.00
408.17	3849.00
408.63	3869.00
409.09	3911.00
409.56	3889.00
410.02	3843.00
410.48	3809.00
410.94	3832.00
411.40	3988.00
411.87	3958.00
412.33	3962.00
412.79	3976.00
413.25	3969.00
413.71	3946.00
414.18	4009.00
414.64	3994.00
415.10	3975.00
415.56	3998.00
416.02	4014.00
416.49	4040.00
416.95	4089.00
417.41	4024.00
417.87	3997.00
418.33	3947.00
418.80	3995.00
419.26	3991.00
419.72	4005.00
420.18	4061.00
420.64	3994.00
421.10	4097.00
421.57	4084.00
422.03	4075.00
422.49	4057.00
422.95	4028.00
423.41	4051.00
423.87	4072.00
424.34	4077.00
424.80	4077.00
425.26	4061.00
425.72	4070.00
426.18	4065.00
426.64	4040.00
427.10	4045.00
427.57	4025.00
428.03	4027.00
428.49	4061.00
428.95	3976.00
429.41	3919.00
429.87	3879.00
430.33	3851.00
430.79	3820.00
431.26	3909.00
431.72	4009.00
432.18	4208.00
432.64	4175.00
433.10	4176.00
433.56	4201.00
434.02	4178.00
434.48	4154.00
434.94	4242.00
435.40	4295.00
435.87	4307.00
436.33	4392.00
436.79	4369.00
437.25	4326.00
437.71	4293.00
438.17	4273.00
438.63	4278.00
439.09	4208.00
439.55	4300.00
440.01	4351.00
440.47	4396.00
440.93	4407.00
441.39	4465.00
441.85	4530.00
442.32	4532.00
442.78	4586.00
443.24	4579.00
443.70	4577.00
444.16	4587.00
444.62	4560.00
445.08	4597.00
445.54	4553.00
446.00	4528.00
446.46	4611.00
446.92	4587.00
447.38	4627.00
447.84	4754.00
448.30	4720.00
448.76	4709.00
449.22	4748.00
449.68	4780.00
450.14	4847.00
450.60	4923.00
451.06	4912.00
451.52	4910.00
451.98	4841.00
452.44	4760.00
452.90	4738.00
453.36	4693.00
453.82	4730.00
454.28	4827.00
454.74	4824.00
455.20	4857.00
455.66	4862.00
456.12	4912.00
456.58	4946.00
457.04	4875.00
457.50	4941.00
457.96	4899.00
458.42	4890.00
458.88	4859.00
459.34	4913.00
459.80	4946.00
460.26	4965.00
460.72	4963.00
461.18	5023.00
461.64	4994.00
462.10	5003.00
462.55	5019.00
463.01	5027.00
463.47	5030.00
463.93	4969.00
464.39	4945.00
464.85	4978.00
465.31	5003.00
465.77	4959.00
466.23	5064.00
466.69	4984.00
467.15	4923.00
467.61	4977.00
468.07	5045.00
468.52	5014.00
468.98	5011.00
469.44	5000.00
469.90	5013.00
470.36	5008.00
470.82	4969.00
471.28	5057.00
471.74	5115.00
472.20	5099.00
472.66	5112.00
473.11	5089.00
473.57	5099.00
474.03	5146.00
474.49	5127.00
474.95	5157.00
475.41	5154.00
475.87	5181.00
476.33	5146.00
476.78	5138.00
477.24	5164.00
477.70	5248.00
478.16	5237.00
478.62	5185.00
479.08	5179.00
479.54	5200.00
479.99	5236.00
480.45	5290.00
480.91	5271.00
481.37	5255.00
481.83	5316.00
482.29	5287.00
482.74	5278.00
483.20	5259.00
483.66	5232.00
484.12	5204.00
484.58	5227.00
485.04	5135.00
485.49	5044.00
485.95	4976.00
486.41	4901.00
486.87	4954.00
487.33	5064.00
487.78	5107.00
488.24	5187.00
488.70	5201.00
489.16	5194.00
489.62	5228.00
490.07	5309.00
490.53	5301.00
490.99	5272.00
491.45	5243.00
491.90	5261.00
492.36	5199.00
492.82	5225.00
493.28	5288.00
493.74	5320.00
494.19	5380.00
494.65	5359.00
495.11	5319.00
495.57	5376.00
496.02	5378.00
496.48	5353.00
496.94	5369.00
497.40	5349.00
497.85	5318.00
498.31	5343.00
498.77	5278.00
499.23	5336.00
499.68	5299.00
500.14	5316.00
500.60	5241.00
501.06	5197.00
501.51	5308.00
501.97	5206.00
502.43	5279.00
502.88	5263.00
503.34	5312.00
503.80	5349.00
504.26	5289.00
504.71	5281.00
505.17	5363.00
505.63	5424.00
506.08	5436.00
506.54	5443.00
507.00	5363.00
507.45	5368.00
507.91	5353.00
508.37	5390.00
508.82	5346.00
509.28	5400.00
509.74	5383.00
510.19	5468.00
510.65	5454.00
511.11	5477.00
511.56	5521.00
512.02	5423.00
512.48	5496.00
512.93	5405.00
513.39	5355.00
513.85	5387.00
514.30	5372.00
514.76	5476.00
515.22	5385.00
515.67	5362.00
516.13	5302.00
516.59	5270.00
517.04	5156.00
517.50	5132.00
517.95	5156.00
518.41	5293.00
518.87	5266.00
519.32	5327.00
519.78	5455.00
520.24	5373.00
520.69	5502.00
521.15	5438.00
521.60	5531.00
522.06	5514.00
522.52	5511.00
522.97	5444.00
523.43	5532.00
523.88	5557.00
524.34	5595.00
524.80	5636.00
525.25	5595.00
525.71	5509.00
526.16	5463.00
526.62	5394.00
527.07	5412.00
527.53	5406.00
527.99	5541.00
528.44	5591.00
528.90	5656.00
529.35	5590.00
529.81	5673.00
530.26	5685.00
530.72	5729.00
531.17	5715.00
531.63	5626.00
532.09	5626.00
532.54	5627.00
533.00	5544.00
533.45	5536.00
533.91	5630.00
534.36	5629.00
534.82	5679.00
535.27	5697.00
535.73	5762.00
536.18	5722.00
536.64	5715.00
537.09	5721.00
537.55	5636.00
538.00	5713.00
538.46	5738.00
538.91	5678.00
539.37	5654.00
539.82	5658.00
540.28	5611.00
540.73	5543.00
541.19	5634.00
541.64	5647.00
542.10	5657.00
542.55	5644.00
543.01	5629.00
543.46	5708.00
543.92	5707.00
544.37	5754.00
544.83	5730.00
545.28	5713.00
545.74	5712.00
546.19	5758.00
546.64	5793.00
547.10	5711.00
547.55	5691.00
548.01	5735.00
548.46	5739.00
548.92	5728.00
549.37	5791.00
549.83	5789.00
550.28	5790.00
550.73	5801.00
551.19	5774.00
551.64	5782.00
552.10	5793.00
552.55	5798.00
553.00	5793.00
553.46	5797.00
553.91	5811.00
554.37	5802.00
554.82	5868.00
555.28	5800.00
555.73	5839.00
556.18	5785.00
556.64	5733.00
557.09	5716.00
557.54	5775.00
558.00	5732.00
558.45	5708.00
558.91	5686.00
559.36	5628.00
559.81	5657.00
560.27	5758.00
560.72	5745.00
561.17	5759.00
561.63	5769.00
562.08	5699.00
562.54	5776.00
562.99	5743.00
563.44	5760.00
563.90	5796.00
564.35	5812.00
564.80	5747.00
565.26	5730.00
565.71	5743.00
566.16	5699.00
566.62	5742.00
567.07	5728.00
567.52	5783.00
567.98	5832.00
568.43	5740.00
568.88	5726.00
569.34	5750.00
569.79	5693.00
570.24	5707.00
570.69	5651.00
571.15	5654.00
571.60	5673.00
572.05	5740.00
572.51	5782.00
572.96	5801.00
573.41	5809.00
573.86	5848.00
574.32	5781.00
574.77	5793.00
575.22	5717.00
575.68	5741.00
576.13	5770.00
576.58	5795.00
577.03	5771.00
577.49	5782.00
577.94	5727.00
578.39	5726.00
578.84	5744.00
579.30	5783.00
579.75	5807.00
580.20	5830.00
580.65	5818.00
581.11	5895.00
581.56	5843.00
582.01	5897.00
582.46	5876.00
582.92	5961.00
583.37	5947.00
583.82	5969.00
584.27	5949.00
584.72	5989.00
585.18	5907.00
585.63	5828.00
586.08	5807.00
586.53	5852.00
586.98	5805.00
587.44	5832.00
587.89	5870.00
588.34	5748.00
588.79	5584.00
589.24	5503.00
589.70	5444.00
590.15	5618.00
590.60	5704.00
591.05	5767.00
591.50	5778.00
591.96	5766.00
592.41	5749.00
592.86	5777.00
593.31	5841.00
593.76	5805.00
594.21	5729.00
594.66	5774.00
595.12	5716.00
595.57	5819.00
596.02	5811.00
596.47	5793.00
596.92	5871.00
597.37	5782.00
597.82	5760.00
598.28	5817.00
598.73	5754.00
599.18	5810.00
599.63	5869.00
600.08	5779.00
600.53	5819.00
600.98	5767.00
601.43	5806.00
601.88	5832.00
602.34	5728.00
602.79	5797.00
603.24	5845.00
603.69	5910.00
604.14	5888.00
604.59	5862.00
605.04	5890.00
605.49	5888.00
605.94	5881.00
606.39	5880.00
606.84	5906.00
607.30	5875.00
607.75	5858.00
608.20	5780.00
608.65	5937.00
609.10	5880.00
609.55	5833.00
610.00	5869.00
610.45	5853.00
610.90	5861.00
611.35	5855.00
611.80	5804.00
612.25	5869.00
612.70	5840.00
613.15	5848.00
613.60	5835.00
614.05	5845.00
614.50	5835.00
614.95	5792.00
615.40	5822.00
615.85	5776.00
616.30	5713.00
616.75	5746.00
617.20	5728.00
617.65	5793.00
618.10	5832.00
618.55	5852.00
619.00	5838.00
619.45	5915.00
619.90	5880.00
620.35	5904.00
620.80	5911.00
621.25	5922.00
621.70	5881.00
622.15	5835.00
622.60	5821.00
623.05	5790.00
623.50	5869.00
623.95	5835.00
624.40	5782.00
624.85	5790.00
625.30	5747.00
625.75	5761.00
626.20	5732.00
626.65	5780.00
627.10	5815.00
627.55	5727.00
627.99	5725.00
628.44	5723.00
628.89	5757.00
629.34	5725.00
629.79	5762.00
630.24	5724.00
630.69	5813.00
631.14	5835.00
631.59	5721.00
632.04	5772.00
632.49	5785.00
632.94	5798.00
633.38	5855.00
633.83	5790.00
634.28	5780.00
634.73	5938.00
635.18	5877.00
635.63	5879.00
636.08	5880.00
636.53	5875.00
636.97	5962.00
637.42	5921.00
637.87	5964.00
638.32	6007.00
638.77	5962.00
639.22	5974.00
639.67	5934.00
640.11	5837.00
640.56	5939.00
641.01	5878.00
641.46	5881.00
641.91	5853.00
642.36	5874.00
642.81	5906.00
643.25	5905.00
643.70	5962.00
644.15	5886.00
644.60	5955.00
645.05	6004.00
645.49	5895.00
645.94	5824.00
646.39	5822.00
646.84	5782.00
647.29	5790.00
647.73	5869.00
648.18	5805.00
648.63	5821.00
649.08	5791.00
649.53	5712.00
649.97	5701.00
650.42	5807.00
650.87	5856.00
651.32	5865.00
651.77	5814.00
652.21	5845.00
652.66	5836.00
653.11	5861.00
653.56	5913.00
654.00	5865.00
654.45	5839.00
654.90	5791.00
655.35	5753.00
655.79	5503.00
656.24	5375.00
656.69	5367.00
657.14	5404.00
657.58	5630.00
658.03	5743.00
658.48	5825.00
658.92	5829.00
659.37	5765.00
659.82	5858.00
660.27	5834.00
660.71	5902.00
661.16	5841.00
661.61	5967.00
662.05	5947.00
662.50	5938.00
662.95	5938.00
663.39	5919.00
663.84	5920.00
664.29	5886.00
664.74	5911.00
665.18	5884.00
665.63	5917.00
666.08	5893.00
666.52	5947.00
666.97	5853.00
667.42	5895.00
667.86	5826.00
668.31	5873.00
668.76	5927.00
669.20	5942.00
669.65	5925.00
670.09	5833.00
670.54	5843.00
670.99	5963.00
671.43	5888.00
671.88	5810.00
672.33	5808.00
672.77	5860.00
673.22	5816.00
673.66	5879.00
674.11	5900.00
674.56	5842.00
675.00	5847.00
675.45	5875.00
675.90	5827.00
676.34	5915.00
676.79	5803.00
677.23	5810.00
677.68	5836.00
678.12	5817.00
678.57	5813.00
679.02	5763.00
679.46	5865.00
679.91	5842.00
680.35	5791.00
680.80	5839.00
681.25	5803.00
681.69	5791.00
682.14	5796.00
682.58	5819.00
683.03	5768.00
683.47	5793.00
683.92	5814.00
684.36	5760.00
684.81	5745.00
685.25	5765.00
685.70	5718.00
686.15	5663.00
686.59	5417.00
687.04	5026.00
687.48	4824.00
687.93	4895.00
688.37	5165.00
688.82	5258.00
689.26	5191.00
689.71	5253.00
690.15	5269.00
690.60	5310.00
691.04	5360.00
691.49	5428.00
691.93	5451.00
692.38	5541.00
692.82	5454.00
693.27	5497.00
693.71	5434.00
694.16	5480.00
694.60	5405.00
695.04	5460.00
695.49	5469.00
695.93	5466.00
696.38	5545.00
696.82	5582.00
697.27	5681.00
697.71	5612.00
698.16	5575.00
698.60	5551.00
699.04	5512.00
699.49	5507.00
699.93	5486.00
700.38	5515.00
700.82	5446.00
701.27	5475.00
701.71	5487.00
702.15	5411.00
702.60	5437.00
703.04	5481.00
703.49	5531.00
703.93	5526.00
704.37	5543.00
704.82	5616.00
705.26	5531.00
705.71	5580.00
706.15	5552.00
706.59	5506.00
707.04	5579.00
707.48	5529.00
707.93	5587.00
708.37	5559.00
708.81	5530.00
709.26	5522.00
709.70	5461.00
710.14	5545.00
710.59	5557.00
711.03	5576.00
711.47	5551.00
711.92	5528.00
712.36	5552.00
712.80	5549.00
713.25	5470.00
713.69	5496.00
714.13	5547.00
714.58	5511.00
715.02	5403.00
715.46	5454.00
715.91	5444.00
716.35	5376.00
716.79	5175.00
717.24	4958.00
717.68	4927.00
718.12	4860.00
718.57	4774.00
719.01	4728.00
719.45	4662.00
719.89	4732.00
720.34	4733.00
720.78	4778.00
721.22	4997.00
721.66	5116.00
722.11	5215.00
722.55	5194.00
722.99	5107.00
723.44	4972.00
723.88	4866.00
724.32	4778.00
724.76	4881.00
725.21	4838.00
725.65	4878.00
726.09	4871.00
726.53	4898.00
726.97	4932.00
727.42	4854.00
727.86	4857.00
728.30	4890.00
728.74	4921.00
729.19	4873.00
729.63	4901.00
730.07	4889.00
730.51	4938.00
730.95	4903.00
731.40	4968.00
731.84	4990.00
732.28	5083.00
732.72	5125.00
733.16	5168.00
733.61	5201.00
734.05	5205.00
734.49	5294.00
734.93	5231.00
735.37	5182.00
735.81	5200.00
736.26	5155.00
736.70	5178.00
737.14	5254.00
737.58	5214.00
738.02	5250.00
738.46	5214.00
738.90	5139.00
739.35	5182.00
739.79	5221.00
740.23	5222.00
740.67	5324.00
741.11	5219.00
741.55	5180.00
741.99	5216.00
742.44	5200.00
742.88	5247.00
743.32	5225.00
743.76	5240.00
744.20	5287.00
744.64	5176.00
745.08	5243.00
745.52	5263.00
745.96	5251.00
746.40	5276.00
746.84	5245.00
747.29	5266.00
747.73	5267.00
748.17	5304.00
748.61	5224.00
749.05	5293.00
749.49	5236.00
749.93	5252.00
750.37	5341.00
750.81	5240.00
751.25	5313.00
751.69	5276.00
752.13	5247.00
752.57	5265.00
753.01	5305.00
753.45	5229.00
753.89	5292.00
754.33	5249.00
754.77	5233.00
755.21	5273.00
755.65	5248.00
756.09	5282.00
756.53	5261.00
756.97	5225.00
757.41	5282.00
757.85	5253.00
758.29	5228.00
758.73	5133.00
759.17	4968.00
759.61	4336.00
760.05	3630.00
760.49	3182.00
760.93	3050.00
761.37	3284.00
761.81	3719.00
762.25	3992.00
762.69	3804.00
763.13	3625.00
763.57	3680.00
764.01	3699.00
764.45	3844.00
764.89	4004.00
765.33	4202.00
765.77	4335.00
766.21	4520.00
766.65	4619.00
767.09	4793.00
767.53	4920.00
767.96	4962.00
768.40	4991.00
768.84	5029.00
769.28	5065.00
769.72	5074.00
770.16	5028.00
770.60	5153.00
771.04	5130.00
771.48	5092.00
771.92	5138.00
772.35	5166.00
772.79	5140.00
773.23	5113.00
773.67	5178.00
774.11	5160.00
774.55	5089.00
774.99	5074.00
775.43	5060.00
775.86	5083.00
776.30	5129.00
776.74	5145.00
777.18	5133.00
777.62	5141.00
778.06	5067.00
778.50	5067.00
778.93	5062.00
779.37	5058.00
779.81	5107.00
780.25	5053.00
780.69	4988.00
781.12	5070.00
781.56	5047.00
782.00	5088.00
782.44	5111.00
782.88	5112.00
783.32	5037.00
783.75	5017.00
784.19	5050.00
784.63	4983.00
785.07	5061.00
785.50	5013.00
785.94	4987.00
786.38	4976.00
786.82	4938.00
787.26	4949.00
787.69	5004.00
788.13	4960.00
788.57	4959.00
789.01	4931.00
789.44	4903.00
789.88	4833.00
790.32	4871.00
790.76	4889.00
791.19	4777.00
791.63	4809.00
792.07	4826.00
792.51	4800.00
792.94	4809.00
793.38	4801.00
793.82	4841.00
794.25	4822.00
794.69	4802.00
795.13	4869.00
795.56	4839.00
796.00	4799.00
796.44	4731.00
796.88	4738.00
797.31	4751.00
797.75	4785.00
798.19	4733.00
798.62	4784.00
799.06	4761.00
799.50	4756.00
799.93	4722.00
800.37	4699.00
800.81	4739.00
801.24	4724.00
801.68	4737.00
802.12	4725.00
802.55	4697.00
802.99	4697.00
803.43	4640.00
803.86	4658.00
804.30	4708.00
804.73	4629.00
805.17	4665.00
805.61	4732.00
806.04	4733.00
806.48	4735.00
806.92	4737.00
807.35	4711.00
807.79	4669.00
808.22	4654.00
808.66	4655.00
809.10	4626.00
809.53	4636.00
809.97	4529.00
810.40	4552.00
810.84	4575.00
811.27	4568.00
811.71	4568.00
812.15	4509.00
812.58	4530.00
813.02	4475.00
813.45	4357.00
813.89	4381.00
814.32	4291.00
814.76	4194.00
815.19	4177.00
815.63	4161.00
816.07	4148.00
816.50	4077.00
816.94	4104.00
817.37	4200.00
817.81	4189.00
818.24	4089.00
818.68	4169.00
819.11	4277.00
819.55	4168.00
819.98	4167.00
820.42	4284.00
820.85	4376.00
821.29	4315.00
821.72	4349.00
822.16	4230.00
822.59	4018.00
823.03	3827.00
823.46	3971.00
823.90	4240.00
824.33	4306.00
824.77	4334.00
825.20	4357.00
825.63	4401.00
826.07	4308.00
826.50	4321.00
826.94	4387.00
827.37	4202.00
827.81	4188.00
828.24	4228.00
828.68	4217.00
829.11	4136.00
829.54	4220.00
829.98	4236.00
830.41	4256.00
830.85	4259.00
831.28	4300.00
831.71	4308.00
832.15	4248.00
832.58	4303.00
833.02	4288.00
833.45	4259.00
833.88	4247.00
834.32	4319.00
834.75	4297.00
835.19	4350.00
835.62	4314.00
836.05	4308.00
836.49	4281.00
836.92	4370.00
837.35	4334.00
837.79	4383.00
838.22	4377.00
838.66	4361.00
839.09	4384.00
839.52	4411.00
839.96	4396.00
840.39	4424.00
840.82	4407.00
841.26	4382.00
841.69	4330.00
842.12	4393.00
842.56	4360.00
842.99	4378.00
843.42	4354.00
843.85	4328.00
844.29	4431.00
844.72	4331.00
845.15	4413.00
845.59	4423.00
846.02	4394.00
846.45	4431.00
846.88	4408.00
847.32	4382.00
847.75	4388.00
848.18	4348.00
848.62	4359.00
849.05	4335.00
849.48	4242.00
849.91	4167.00
850.35	4218.00
850.78	4294.00
851.21	4342.00
851.64	4324.00
852.08	4374.00
852.51	4355.00
852.94	4338.00
853.37	4325.00
853.80	4135.00
854.24	3956.00
854.67	4084.00
855.10	4256.00
855.53	4263.00
855.97	4299.00
856.40	4309.00
856.83	4330.00
857.26	4285.00
857.69	4355.00
858.13	4273.00
858.56	4297.00
858.99	4370.00
859.42	4335.00
859.85	4396.00
860.28	4350.00
860.72	4342.00
861.15	4360.00
861.58	4319.00
862.01	4306.00
862.44	4303.00
862.87	4290.00
863.30	4305.00
863.74	4339.00
864.17	4301.00
864.60	4272.00
865.03	4280.00
865.46	4190.00
865.89	4110.00
866.32	4013.00
866.75	4164.00
867.19	4254.00
867.62	4297.00
868.05	4291.00
868.48	4273.00
868.91	4265.00
869.34	4261.00
869.77	4261.00
870.20	4245.00
870.63	4270.00
871.06	4248.00
871.49	4225.00
871.93	4259.00
872.36	4262.00
872.79	4214.00
873.22	4253.00
873.65	4247.00
874.08	4247.00
874.51	4280.00
874.94	4244.00
875.37	4246.00
875.80	4234.00
876.23	4205.00
876.66	4206.00
877.09	4210.00
877.52	4199.00
877.95	4161.00
878.38	4195.00
878.81	4168.00
879.24	4183.00
879.67	4176.00
880.10	4151.00
880.53	4103.00
880.96	4170.00
881.39	4198.00
881.82	4234.00
882.25	4161.00
882.68	4217.00
883.11	4216.00
883.54	4214.00
883.97	4210.00
884.40	4231.00
884.83	4203.00
885.26	4223.00
885.69	4168.00
886.12	4128.00
886.55	4083.00
886.98	4167.00
887.40	4135.00
887.83	4164.00
888.26	4199.00
888.69	4183.00
889.12	4190.00
889.55	4151.00
889.98	4176.00
890.41	4183.00
890.84	4171.00
891.27	4202.00
891.70	4174.00
892.12	4113.00
892.55	4122.00
892.98	4036.00
893.41	4036.00
893.84	4021.00
894.27	4032.00
894.70	3929.00
895.13	3887.00
895.55	3903.00
895.98	3839.00
896.41	3789.00
896.84	3787.00
897.27	3763.00
897.70	3829.00
898.13	3812.00
898.55	3603.00
898.98	3618.00
899.41	3758.00
899.84	3712.00
900.27	3701.00
900.70	3689.00
901.12	3707.00
901.55	3677.00
901.98	3693.00
902.41	3732.00
902.84	3798.00
903.26	3899.00
903.69	3878.00
904.12	3921.00
904.55	3876.00
904.97	3887.00
905.40	3878.00
905.83	3798.00
906.26	3759.00
906.69	3684.00
907.11	3663.00
907.54	3673.00
907.97	3677.00
908.40	3656.00
908.82	3671.00
909.25	3638.00
909.68	3649.00
910.10	3626.00
910.53	3670.00
910.96	3732.00
911.39	3668.00
911.81	3690.00
912.24	3715.00
912.67	3554.00
913.09	3509.00
913.52	3599.00
913.95	3668.00
914.38	3666.00
914.80	3551.00
915.23	3532.00
915.66	3600.00
916.08	3718.00
916.51	3667.00
916.94	3527.00
917.36	3551.00
917.79	3669.00
918.22	3683.00
918.64	3726.00
919.07	3699.00
919.50	3736.00
919.92	3778.00
920.35	3732.00
920.78	3720.00
921.20	3637.00
921.63	3675.00
922.05	3709.00
922.48	3709.00
922.91	3660.00
923.33	3640.00
923.76	3633.00
924.18	3653.00
924.61	3639.00
925.04	3649.00
925.46	3617.00
925.89	3618.00
926.31	3655.00
926.74	3612.00
927.17	3494.00
927.59	3411.00
928.02	3367.00
928.44	3350.00
928.87	3290.00
929.29	3249.00
929.72	3213.00
930.15	3160.00
930.57	3164.00
931.00	3077.00
931.42	3001.00
931.85	2963.00
932.27	2952.00
932.70	2932.00
933.12	2871.00
933.55	2833.00
933.97	2846.00
934.40	2947.00
934.82	2915.00
935.25	2856.00
935.67	2901.00
936.10	2878.00
936.52	2837.00
936.95	2863.00
937.37	2827.00
937.80	2885.00
938.22	2947.00
938.65	3032.00
939.07	3046.00
939.50	2966.00
939.92	2940.00
940.35	2934.00
940.77	2948.00
941.19	2934.00
941.62	2937.00
942.04	2874.00
942.47	2863.00
942.89	2909.00
943.32	2851.00
943.74	2811.00
944.16	2881.00
944.59	2890.00
945.01	2861.00
945.44	2841.00
945.86	2883.00
946.29	2873.00
946.71	2909.00
947.13	2905.00
947.56	2909.00
947.98	2937.00
948.40	2987.00
948.83	2897.00
949.25	2849.00
949.68	2892.00
950.10	3004.00
950.52	3036.00
950.95	2967.00
951.37	2881.00
951.79	2900.00
952.22	2932.00
952.64	2990.00
953.06	3016.00
953.49	2980.00
953.91	2943.00
954.33	2985.00
954.76	2975.00
955.18	2996.00
955.60	2974.00
956.03	2990.00
956.45	3066.00
956.87	3128.00
957.30	3073.00
957.72	3054.00
958.14	2988.00
958.56	3004.00
958.99	3018.00
959.41	3053.00
959.83	3100.00
960.26	3129.00
960.68	3143.00
961.10	3147.00
961.52	3105.00
961.95	3111.00
962.37	3177.00
962.79	3170.00
963.21	3111.00
963.64	3154.00
964.06	3150.00
964.48	3202.00
964.90	3217.00
965.32	3181.00
965.75	3171.00
966.17	3233.00
966.59	3325.00
967.01	3315.00
967.44	3308.00
967.86	3329.00
968.28	3375.00
968.70	3354.00
969.12	3358.00
969.54	3349.00
969.97	3399.00
970.39	3387.00
970.81	3378.00
971.23	3312.00
971.65	3317.00
972.07	3342.00
972.50	3295.00
972.92	3258.00
973.34	3279.00
973.76	3309.00
974.18	3289.00
974.60	3287.00
975.02	3262.00
975.45	3231.00
975.87	3273.00
976.29	3335.00
976.71	3294.00
977.13	3337.00
977.55	3315.00
977.97	3319.00
978.39	3273.00
978.81	3323.00
979.24	3293.00
979.66	3339.00
980.08	3352.00
980.50	3351.00
980.92	3363.00
981.34	3334.00
981.76	3342.00
982.18	3342.00
982.60	3350.00
983.02	3391.00
983.44	3331.00
983.86	3305.00
984.28	3374.00
984.70	3350.00
985.12	3386.00
985.54	3306.00
985.96	3335.00
986.38	3324.00
986.80	3363.00
987.23	3370.00
987.65	3323.00
988.07	3340.00
988.49	3378.00
988.91	3373.00
989.33	3346.00
989.74	3344.00
990.16	3328.00
990.58	3332.00
991.00	3309.00
991.42	3337.00
991.84	3323.00
992.26	3323.00
992.68	3320.00
993.10	3346.00
993.52	3327.00
993.94	3322.00
994.36	3327.00
994.78	3333.00
995.20	3296.00
995.62	3308.00
996.04	3292.00
996.46	3307.00
996.88	3290.00
997.30	3331.00
997.71	3341.00
998.13	3336.00
998.55	3344.00
998.97	3321.00
999.39	3362.00
999.81	3373.00
1000.23	3304.00
1000.65	3331.00
1001.07	3304.00
1001.49	3341.00
1001.90	3322.00
1002.32	3328.00
1002.74	3333.00
1003.16	3318.00
1003.58	3285.00
1004.00	3271.00
1004.42	3302.00
1004.83	3309.00
1005.25	3324.00
1005.67	3296.00
1006.09	3313.00
1006.51	3285.00
1006.92	3295.00
1007.34	3245.00
1007.76	3263.00
1008.18	3266.00
1008.60	3291.00
1009.02	3254.00
1009.43	3285.00
1009.85	3260.00
1010.27	3278.00
1010.69	3244.00
1011.10	3234.00
1011.52	3235.00
1011.94	3259.00
1012.36	3277.00
1012.78	3232.00
1013.19	3227.00
1013.61	3210.00
1014.03	3210.00
1014.45	3228.00
1014.86	3189.00
1015.28	3200.00
1015.70	3188.00
1016.12	3221.00
1016.53	3203.00
1016.95	3198.00
1017.37	3190.00
1017.78	3159.00
1018.20	3137.00
1018.62	3172.00
1019.03	3150.00
1019.45	3129.00
1019.87	3168.00
1020.29	3147.00
1020.70	3139.00
1021.12	3148.00
1021.54	3117.00
1021.95	3158.00
1022.37	3129.00
1022.79	3141.00
1023.20	3123.00
1023.62	3120.00
1024.04	3109.00
1024.45	3140.00
1024.87	3072.00
1025.28	3085.00
1025.70	3095.00
1026.12	3086.00
1026.53	3108.00
1026.95	3078.00
1027.37	3084.00
1027.78	3069.00
1028.20	3056.00
1028.61	3059.00
1029.03	3057.00
1029.45	3053.00
1029.86	3032.00
1030.28	3037.00
1030.69	3026.00
1031.11	3035.00
1031.53	3028.00
1031.94	3011.00
1032.36	3003.00
1032.77	3031.00
1033.19	3010.00
1033.60	3022.00
1034.02	2991.00
1034.43	3029.00
1034.85	3013.00
1035.27	2981.00
1035.68	2995.00
1036.10	2994.00
1036.51	2971.00
1036.93	2975.00
1037.34	2980.00
1037.76	2953.00
1038.17	2975.00
1038.59	2951.00
1039.00	2958.00
1039.42	2947.00
1039.83	2948.00
1040.25	2950.00
1040.66	2934.00
1041.08	2918.00
1041.49	2939.00
1041.91	2928.00
1042.32	2947.00
1042.73	2909.00
1043.15	2913.00
1043.56	2927.00
1043.98	2917.00
1044.39	2910.00
1044.81	2899.00
1045.22	2906.00
1045.64	2897.00
1046.05	2894.00
1046.46	2893.00
1046.88	2871.00
1047.29	2887.00
1047.71	2874.00
1048.12	2886.00
1048.53	2864.00
1048.95	2866.00
1049.36	2856.00
1049.78	2862.00
1050.19	2850.00
1050.60	2856.00
1051.02	2847.00
1051.43	2860.00
1051.85	2847.00
1052.26	2861.00
1052.67	2842.00
1053.09	2846.00
1053.50	2843.00
1053.91	2834.00
1054.33	2830.00
1054.74	2832.00
1055.15	2831.00
1055.57	2814.00
1055.98	2817.00
1056.39	2807.00
1056.81	2797.00
1057.22	2793.00
1057.63	2802.00
1058.05	2791.00
1058.46	2795.00
1058.87	2782.00
1059.28	2798.00
1059.70	2809.00
1060.11	2783.00
1060.52	2790.00
1060.94	2784.00
1061.35	2773.00
1061.76	2783.00
1062.17	2780.00
1062.59	2777.00
1063.00	2758.00
1063.41	2770.00
1063.82	2761.00
1064.24	2777.00
1064.65	2745.00
1065.06	2760.00
1065.47	2754.00
1065.89	2749.00
1066.30	2749.00
1066.71	2762.00
1067.12	2736.00
1067.53	2741.00
1067.95	2749.00
1068.36	2747.00
1068.77	2735.00
1069.18	2724.00
1069.59	2725.00
1070.00	2738.00
1070.42	2735.00
1070.83	2734.00
1071.24	2729.00
1071.65	2722.00
1072.06	2729.00
1072.47	2715.00
1072.89	2709.00
1073.30	2711.00
1073.71	2718.00
1074.12	2705.00
1074.53	2712.00
1074.94	2717.00
1075.35	2708.00
1075.77	2704.00
1076.18	2702.00
1076.59	2697.00
1077.00	2706.00
1077.41	2695.00
1077.82	2709.00
1078.23	2706.00
1078.64	2697.00
1079.05	2690.00
1079.46	2688.00
1079.87	2675.00
1080.29	2691.00
1080.70	2692.00
1081.11	2675.00
1081.52	2669.00
1081.93	2693.00
1082.34	2686.00
1082.75	2680.00
1083.16	2676.00
1083.57	2674.00
1083.98	2675.00
1084.39	2668.00
1084.80	2682.00
1085.21	2671.00
1085.62	2668.00
1086.03	2708.00
1086.44	2674.00
1086.85	2672.00
1087.26	2671.00
1087.67	2678.00
1088.08	2659.00
1088.49	2659.00
1088.90	2658.00
1089.31	2667.00
1089.72	2658.00
1090.13	2656.00
1090.54	2659.00
1090.95	2662.00
1091.36	2647.00
1091.77	2657.00
1092.18	2662.00
1092.59	2650.00
1093.00	2654.00
1093.40	2646.00
1093.81	2642.00
1094.22	2644.00
1094.63	2646.00
1095.04	2638.00
1095.45	2642.00
1095.86	2646.00
1096.27	2635.00
1096.68	2639.00
1097.09	2639.00
1097.50	2647.00
1097.90	2635.00
1098.31	2624.00
1098.72	2633.00
1099.13	2631.00
1099.54	2623.00
1099.95	2630.00
1100.36	2633.00
1100.76	2628.00
1101.17	2628.00
1101.58	2618.00
1101.99	2629.00
1102.40	2640.00
1102.81	2621.00
1103.22	2616.00
1103.62	2616.00
1104.03	2619.00
1104.44	2619.00
1104.85	2622.00
1105.26	2615.00
1105.66	2610.00
1106.07	2616.00
1106.48	2619.00
1106.89	2615.00
1107.30	2613.00
1107.70	2614.00
1108.11	2612.00
1108.52	2608.00
1108.93	2617.00
1109.33	2611.00
1109.74	2610.00
1110.15	2611.00
1110.56	2606.00
1110.96	2600.00
1111.37	2611.00
1111.78	2609.00
1112.19	2616.00
1112.59	2604.00
1113.00	2604.00
1113.41	2613.00
1113.81	2607.00
1114.22	2607.00
1114.63	2571.00
1115.03	2577.00
1115.44	2578.00
1115.85	2578.00
>>>>>End Processed Spectral Data<<<<<
