SpectraSuite Data File
++++++++++++++++++++++++++++++++++++
Date: Thu Aug 05 10:45:32 EEST 2021
User: CanSEE
Dark Spectrum Present: No
Reference Spectrum Present: No
Number of Sampled Component Spectra: 1
Spectrometers: MAYP112785
Integration Time (usec): 10000 (MAYP112785)
Spectra Averaged: 1 (MAYP112785)
Boxcar Smoothing: 0 (MAYP112785)
Correct for Electrical Dark: No (MAYP112785)
Strobe/Lamp Enabled: No (MAYP112785)
Correct for Detector Non-linearity: No (MAYP112785)
Correct for Stray Light: No (MAYP112785)
Number of Pixels in Processed Spectrum: 2068
>>>>>Begin Processed Spectral Data<<<<<
198.35	3481.00
198.82	2486.00
199.30	2595.00
199.77	2575.00
200.24	2602.00
200.71	2607.00
201.18	2609.00
201.65	2611.00
202.13	2602.00
202.60	2615.00
203.07	2609.00
203.54	2607.00
204.01	2599.00
204.48	2609.00
204.96	2597.00
205.43	2601.00
205.90	2614.00
206.37	2609.00
206.84	2606.00
207.31	2605.00
207.78	2603.00
208.26	2610.00
208.73	2607.00
209.20	2610.00
209.67	2611.00
210.14	2612.00
210.61	2615.00
211.08	2612.00
211.56	2600.00
212.03	2608.00
212.50	2607.00
212.97	2611.00
213.44	2601.00
213.91	2603.00
214.38	2597.00
214.85	2601.00
215.33	2602.00
215.80	2597.00
216.27	2603.00
216.74	2602.00
217.21	2603.00
217.68	2618.00
218.15	2608.00
218.62	2605.00
219.09	2597.00
219.57	2601.00
220.04	2603.00
220.51	2609.00
220.98	2606.00
221.45	2607.00
221.92	2611.00
222.39	2602.00
222.86	2602.00
223.33	2607.00
223.80	2603.00
224.27	2599.00
224.74	2601.00
225.22	2603.00
225.69	2612.00
226.16	2602.00
226.63	2597.00
227.10	2605.00
227.57	2603.00
228.04	2603.00
228.51	2603.00
228.98	2608.00
229.45	2609.00
229.92	2604.00
230.39	2606.00
230.86	2609.00
231.33	2618.00
231.80	2596.00
232.27	2607.00
232.75	2607.00
233.22	2614.00
233.69	2611.00
234.16	2610.00
234.63	2608.00
235.10	2607.00
235.57	2607.00
236.04	2608.00
236.51	2610.00
236.98	2610.00
237.45	2609.00
237.92	2611.00
238.39	2605.00
238.86	2602.00
239.33	2671.00
239.80	2607.00
240.27	2607.00
240.74	2603.00
241.21	2615.00
241.68	2602.00
242.15	2604.00
242.62	2606.00
243.09	2608.00
243.56	2604.00
244.03	2607.00
244.50	2612.00
244.97	2608.00
245.44	2624.00
245.91	2606.00
246.38	2612.00
246.85	2612.00
247.32	2616.00
247.79	2602.00
248.26	2610.00
248.73	2599.00
249.20	2605.00
249.67	2597.00
250.14	2612.00
250.61	2607.00
251.08	2610.00
251.55	2609.00
252.02	2607.00
252.49	2610.00
252.96	2600.00
253.43	2604.00
253.90	2614.00
254.37	2617.00
254.84	2608.00
255.31	2609.00
255.77	2616.00
256.24	2612.00
256.71	2608.00
257.18	2608.00
257.65	2616.00
258.12	2604.00
258.59	2607.00
259.06	2607.00
259.53	2606.00
260.00	2610.00
260.47	2609.00
260.94	2604.00
261.41	2620.00
261.88	2607.00
262.35	2608.00
262.81	2614.00
263.28	2607.00
263.75	2606.00
264.22	2601.00
264.69	2614.00
265.16	2607.00
265.63	2618.00
266.10	2611.00
266.57	2606.00
267.04	2610.00
267.51	2609.00
267.97	2612.00
268.44	2602.00
268.91	2609.00
269.38	2608.00
269.85	2606.00
270.32	2609.00
270.79	2609.00
271.26	2612.00
271.73	2620.00
272.19	2606.00
272.66	2606.00
273.13	2605.00
273.60	2609.00
274.07	2612.00
274.54	2608.00
275.01	2603.00
275.48	2610.00
275.94	2605.00
276.41	2606.00
276.88	2604.00
277.35	2607.00
277.82	2609.00
278.29	2614.00
278.76	2608.00
279.22	2616.00
279.69	2602.00
280.16	2613.00
280.63	2609.00
281.10	2607.00
281.57	2605.00
282.04	2604.00
282.50	2602.00
282.97	2608.00
283.44	2609.00
283.91	2607.00
284.38	2601.00
284.85	2606.00
285.31	2612.00
285.78	2613.00
286.25	2612.00
286.72	2608.00
287.19	2605.00
287.65	2604.00
288.12	2611.00
288.59	2609.00
289.06	2606.00
289.53	2610.00
289.99	2600.00
290.46	2615.00
290.93	2603.00
291.40	2609.00
291.87	2606.00
292.33	2611.00
292.80	2608.00
293.27	2608.00
293.74	2602.00
294.21	2610.00
294.67	2598.00
295.14	2605.00
295.61	2610.00
296.08	2607.00
296.54	2602.00
297.01	2607.00
297.48	2612.00
297.95	2605.00
298.42	2612.00
298.88	2606.00
299.35	2615.00
299.82	2611.00
300.29	2611.00
300.75	2607.00
301.22	2609.00
301.69	2602.00
302.16	2614.00
302.62	2609.00
303.09	2606.00
303.56	2614.00
304.03	2609.00
304.49	2623.00
304.96	2615.00
305.43	2615.00
305.90	2616.00
306.36	2619.00
306.83	2613.00
307.30	2611.00
307.76	2624.00
308.23	2625.00
308.70	2617.00
309.17	2633.00
309.63	2625.00
310.10	2632.00
310.57	2630.00
311.03	2646.00
311.50	2641.00
311.97	2643.00
312.44	2652.00
312.90	2643.00
313.37	2660.00
313.84	2653.00
314.30	2675.00
314.77	2662.00
315.24	2671.00
315.70	2667.00
316.17	2675.00
316.64	2679.00
317.10	2687.00
317.57	2688.00
318.04	2707.00
318.50	2685.00
318.97	2705.00
319.44	2710.00
319.90	2704.00
320.37	2712.00
320.84	2722.00
321.30	2722.00
321.77	2717.00
322.24	2725.00
322.70	2727.00
323.17	2718.00
323.64	2743.00
324.10	2747.00
324.57	2750.00
325.04	2748.00
325.50	2755.00
325.97	2785.00
326.44	2806.00
326.90	2795.00
327.37	2814.00
327.84	2793.00
328.30	2806.00
328.77	2806.00
329.23	2828.00
329.70	2813.00
330.17	2860.00
330.63	2840.00
331.10	2808.00
331.56	2816.00
332.03	2814.00
332.50	2844.00
332.96	2837.00
333.43	2826.00
333.90	2832.00
334.36	2814.00
334.83	2838.00
335.29	2839.00
335.76	2827.00
336.22	2829.00
336.69	2806.00
337.16	2814.00
337.62	2823.00
338.09	2824.00
338.55	2853.00
339.02	2855.00
339.49	2876.00
339.95	2890.00
340.42	2885.00
340.88	2879.00
341.35	2872.00
341.81	2871.00
342.28	2894.00
342.75	2889.00
343.21	2882.00
343.68	2882.00
344.14	2884.00
344.61	2853.00
345.07	2886.00
345.54	2896.00
346.00	2890.00
346.47	2881.00
346.93	2923.00
347.40	2907.00
347.87	2908.00
348.33	2913.00
348.80	2929.00
349.26	2900.00
349.73	2905.00
350.19	2929.00
350.66	2990.00
351.12	2968.00
351.59	2954.00
352.05	2937.00
352.52	2944.00
352.98	2927.00
353.45	2965.00
353.91	2998.00
354.38	2980.00
354.84	2972.00
355.31	2980.00
355.77	2979.00
356.24	2950.00
356.70	2935.00
357.17	2916.00
357.63	2906.00
358.10	2918.00
358.56	2894.00
359.03	2906.00
359.49	2969.00
359.96	2997.00
360.42	2999.00
360.89	2968.00
361.35	2944.00
361.82	2961.00
362.28	2971.00
362.75	2984.00
363.21	3033.00
363.67	2987.00
364.14	3004.00
364.60	3022.00
365.07	3028.00
365.53	3059.00
366.00	3073.00
366.46	3084.00
366.93	3096.00
367.39	3079.00
367.86	3109.00
368.32	3081.00
368.78	3051.00
369.25	3093.00
369.71	3111.00
370.18	3116.00
370.64	3104.00
371.11	3083.00
371.57	3086.00
372.03	3072.00
372.50	3067.00
372.96	3055.00
373.43	3038.00
373.89	3010.00
374.35	3022.00
374.82	3014.00
375.28	3051.00
375.75	3107.00
376.21	3126.00
376.67	3116.00
377.14	3122.00
377.60	3207.00
378.07	3205.00
378.53	3219.00
378.99	3192.00
379.46	3173.00
379.92	3156.00
380.39	3142.00
380.85	3189.00
381.31	3150.00
381.78	3129.00
382.24	3061.00
382.70	3027.00
383.17	2991.00
383.63	3025.00
384.09	3030.00
384.56	3079.00
385.02	3168.00
385.48	3141.00
385.95	3141.00
386.41	3140.00
386.88	3170.00
387.34	3127.00
387.80	3147.00
388.27	3186.00
388.73	3178.00
389.19	3240.00
389.66	3289.00
390.12	3299.00
390.58	3318.00
391.05	3329.00
391.51	3342.00
391.97	3292.00
392.43	3229.00
392.90	3145.00
393.36	3083.00
393.82	3073.00
394.29	3179.00
394.75	3291.00
395.21	3349.00
395.68	3340.00
396.14	3323.00
396.60	3264.00
397.07	3174.00
397.53	3246.00
397.99	3413.00
398.45	3578.00
398.92	3638.00
399.38	3664.00
399.84	3728.00
400.31	3684.00
400.77	3763.00
401.23	3768.00
401.69	3800.00
402.16	3786.00
402.62	3816.00
403.08	3767.00
403.54	3781.00
404.01	3778.00
404.47	3833.00
404.93	3765.00
405.39	3763.00
405.86	3770.00
406.32	3761.00
406.78	3791.00
407.24	3799.00
407.71	3807.00
408.17	3863.00
408.63	3905.00
409.09	3890.00
409.56	3869.00
410.02	3863.00
410.48	3805.00
410.94	3871.00
411.40	3952.00
411.87	3942.00
412.33	3954.00
412.79	3996.00
413.25	3929.00
413.71	3971.00
414.18	3996.00
414.64	4024.00
415.10	3991.00
415.56	3997.00
416.02	4003.00
416.49	4026.00
416.95	4054.00
417.41	4042.00
417.87	3997.00
418.33	3966.00
418.80	3988.00
419.26	4016.00
419.72	4077.00
420.18	4016.00
420.64	4063.00
421.10	4067.00
421.57	4085.00
422.03	4088.00
422.49	4049.00
422.95	3991.00
423.41	4011.00
423.87	4049.00
424.34	4064.00
424.80	4093.00
425.26	4078.00
425.72	4037.00
426.18	4085.00
426.64	4077.00
427.10	4069.00
427.57	4013.00
428.03	4002.00
428.49	3985.00
428.95	3984.00
429.41	3886.00
429.87	3874.00
430.33	3855.00
430.79	3839.00
431.26	3936.00
431.72	4032.00
432.18	4180.00
432.64	4236.00
433.10	4137.00
433.56	4224.00
434.02	4171.00
434.48	4119.00
434.94	4196.00
435.40	4297.00
435.87	4327.00
436.33	4360.00
436.79	4345.00
437.25	4301.00
437.71	4299.00
438.17	4282.00
438.63	4267.00
439.09	4247.00
439.55	4334.00
440.01	4317.00
440.47	4415.00
440.93	4392.00
441.39	4467.00
441.85	4532.00
442.32	4528.00
442.78	4574.00
443.24	4544.00
443.70	4549.00
444.16	4561.00
444.62	4567.00
445.08	4590.00
445.54	4581.00
446.00	4509.00
446.46	4562.00
446.92	4650.00
447.38	4683.00
447.84	4721.00
448.30	4744.00
448.76	4737.00
449.22	4793.00
449.68	4807.00
450.14	4794.00
450.60	4858.00
451.06	4878.00
451.52	4884.00
451.98	4814.00
452.44	4802.00
452.90	4755.00
453.36	4672.00
453.82	4736.00
454.28	4855.00
454.74	4811.00
455.20	4863.00
455.66	4824.00
456.12	4912.00
456.58	4872.00
457.04	4932.00
457.50	4910.00
457.96	4945.00
458.42	4911.00
458.88	4868.00
459.34	4862.00
459.80	4925.00
460.26	4958.00
460.72	4907.00
461.18	5009.00
461.64	5024.00
462.10	4998.00
462.55	5007.00
463.01	5045.00
463.47	4978.00
463.93	4989.00
464.39	4959.00
464.85	4957.00
465.31	5027.00
465.77	5015.00
466.23	4970.00
466.69	5005.00
467.15	4967.00
467.61	4912.00
468.07	5051.00
468.52	5063.00
468.98	5013.00
469.44	4978.00
469.90	4983.00
470.36	5065.00
470.82	4967.00
471.28	5045.00
471.74	5025.00
472.20	5138.00
472.66	5145.00
473.11	5097.00
473.57	5134.00
474.03	5100.00
474.49	5120.00
474.95	5100.00
475.41	5158.00
475.87	5137.00
476.33	5107.00
476.78	5164.00
477.24	5185.00
477.70	5197.00
478.16	5232.00
478.62	5227.00
479.08	5252.00
479.54	5273.00
479.99	5201.00
480.45	5290.00
480.91	5237.00
481.37	5271.00
481.83	5318.00
482.29	5281.00
482.74	5310.00
483.20	5248.00
483.66	5266.00
484.12	5204.00
484.58	5208.00
485.04	5137.00
485.49	5041.00
485.95	4945.00
486.41	4867.00
486.87	4915.00
487.33	5077.00
487.78	5095.00
488.24	5121.00
488.70	5219.00
489.16	5222.00
489.62	5272.00
490.07	5258.00
490.53	5323.00
490.99	5225.00
491.45	5267.00
491.90	5206.00
492.36	5192.00
492.82	5206.00
493.28	5271.00
493.74	5348.00
494.19	5370.00
494.65	5375.00
495.11	5379.00
495.57	5405.00
496.02	5334.00
496.48	5307.00
496.94	5399.00
497.40	5318.00
497.85	5384.00
498.31	5356.00
498.77	5295.00
499.23	5290.00
499.68	5351.00
500.14	5256.00
500.60	5241.00
501.06	5282.00
501.51	5242.00
501.97	5232.00
502.43	5295.00
502.88	5294.00
503.34	5344.00
503.80	5287.00
504.26	5271.00
504.71	5328.00
505.17	5364.00
505.63	5390.00
506.08	5513.00
506.54	5422.00
507.00	5419.00
507.45	5417.00
507.91	5418.00
508.37	5358.00
508.82	5407.00
509.28	5434.00
509.74	5462.00
510.19	5407.00
510.65	5450.00
511.11	5501.00
511.56	5441.00
512.02	5462.00
512.48	5457.00
512.93	5423.00
513.39	5421.00
513.85	5394.00
514.30	5388.00
514.76	5411.00
515.22	5357.00
515.67	5419.00
516.13	5338.00
516.59	5257.00
517.04	5156.00
517.50	5200.00
517.95	5156.00
518.41	5254.00
518.87	5305.00
519.32	5290.00
519.78	5428.00
520.24	5411.00
520.69	5507.00
521.15	5506.00
521.60	5524.00
522.06	5461.00
522.52	5471.00
522.97	5495.00
523.43	5462.00
523.88	5557.00
524.34	5571.00
524.80	5606.00
525.25	5617.00
525.71	5520.00
526.16	5510.00
526.62	5487.00
527.07	5322.00
527.53	5418.00
527.99	5521.00
528.44	5629.00
528.90	5585.00
529.35	5754.00
529.81	5705.00
530.26	5757.00
530.72	5689.00
531.17	5744.00
531.63	5705.00
532.09	5633.00
532.54	5614.00
533.00	5554.00
533.45	5597.00
533.91	5601.00
534.36	5589.00
534.82	5692.00
535.27	5740.00
535.73	5745.00
536.18	5687.00
536.64	5735.00
537.09	5683.00
537.55	5698.00
538.00	5627.00
538.46	5707.00
538.91	5674.00
539.37	5644.00
539.82	5641.00
540.28	5594.00
540.73	5598.00
541.19	5608.00
541.64	5659.00
542.10	5726.00
542.55	5674.00
543.01	5731.00
543.46	5711.00
543.92	5710.00
544.37	5806.00
544.83	5760.00
545.28	5669.00
545.74	5725.00
546.19	5720.00
546.64	5843.00
547.10	5623.00
547.55	5745.00
548.01	5696.00
548.46	5727.00
548.92	5756.00
549.37	5771.00
549.83	5746.00
550.28	5783.00
550.73	5802.00
551.19	5748.00
551.64	5806.00
552.10	5774.00
552.55	5818.00
553.00	5736.00
553.46	5847.00
553.91	5729.00
554.37	5813.00
554.82	5858.00
555.28	5866.00
555.73	5865.00
556.18	5806.00
556.64	5774.00
557.09	5755.00
557.54	5795.00
558.00	5686.00
558.45	5642.00
558.91	5736.00
559.36	5622.00
559.81	5663.00
560.27	5797.00
560.72	5794.00
561.17	5755.00
561.63	5759.00
562.08	5732.00
562.54	5814.00
562.99	5847.00
563.44	5788.00
563.90	5803.00
564.35	5767.00
564.80	5722.00
565.26	5738.00
565.71	5711.00
566.16	5723.00
566.62	5756.00
567.07	5738.00
567.52	5728.00
567.98	5746.00
568.43	5702.00
568.88	5732.00
569.34	5687.00
569.79	5703.00
570.24	5724.00
570.69	5725.00
571.15	5715.00
571.60	5746.00
572.05	5780.00
572.51	5779.00
572.96	5823.00
573.41	5817.00
573.86	5776.00
574.32	5850.00
574.77	5797.00
575.22	5746.00
575.68	5741.00
576.13	5773.00
576.58	5771.00
577.03	5781.00
577.49	5800.00
577.94	5746.00
578.39	5748.00
578.84	5760.00
579.30	5778.00
579.75	5815.00
580.20	5837.00
580.65	5852.00
581.11	5926.00
581.56	5822.00
582.01	5895.00
582.46	5944.00
582.92	5941.00
583.37	5885.00
583.82	5952.00
584.27	5917.00
584.72	5866.00
585.18	5916.00
585.63	5841.00
586.08	5851.00
586.53	5851.00
586.98	5873.00
587.44	5928.00
587.89	5883.00
588.34	5703.00
588.79	5592.00
589.24	5541.00
589.70	5515.00
590.15	5622.00
590.60	5715.00
591.05	5742.00
591.50	5750.00
591.96	5777.00
592.41	5718.00
592.86	5755.00
593.31	5806.00
593.76	5781.00
594.21	5792.00
594.66	5749.00
595.12	5791.00
595.57	5734.00
596.02	5785.00
596.47	5858.00
596.92	5868.00
597.37	5832.00
597.82	5766.00
598.28	5806.00
598.73	5798.00
599.18	5795.00
599.63	5779.00
600.08	5866.00
600.53	5813.00
600.98	5844.00
601.43	5780.00
601.88	5793.00
602.34	5719.00
602.79	5772.00
603.24	5823.00
603.69	5940.00
604.14	5845.00
604.59	5865.00
605.04	5887.00
605.49	5840.00
605.94	5895.00
606.39	5850.00
606.84	5914.00
607.30	5901.00
607.75	5937.00
608.20	5836.00
608.65	5910.00
609.10	5875.00
609.55	5919.00
610.00	5842.00
610.45	5861.00
610.90	5835.00
611.35	5897.00
611.80	5835.00
612.25	5851.00
612.70	5868.00
613.15	5845.00
613.60	5760.00
614.05	5785.00
614.50	5852.00
614.95	5835.00
615.40	5810.00
615.85	5792.00
616.30	5736.00
616.75	5737.00
617.20	5783.00
617.65	5791.00
618.10	5936.00
618.55	5828.00
619.00	5879.00
619.45	5842.00
619.90	5892.00
620.35	5888.00
620.80	5887.00
621.25	5949.00
621.70	5863.00
622.15	5841.00
622.60	5804.00
623.05	5814.00
623.50	5881.00
623.95	5770.00
624.40	5766.00
624.85	5794.00
625.30	5830.00
625.75	5760.00
626.20	5793.00
626.65	5833.00
627.10	5801.00
627.55	5773.00
627.99	5692.00
628.44	5699.00
628.89	5745.00
629.34	5764.00
629.79	5778.00
630.24	5776.00
630.69	5783.00
631.14	5838.00
631.59	5763.00
632.04	5821.00
632.49	5869.00
632.94	5834.00
633.38	5881.00
633.83	5845.00
634.28	5802.00
634.73	5824.00
635.18	5833.00
635.63	5876.00
636.08	5855.00
636.53	5872.00
636.97	5914.00
637.42	5907.00
637.87	5949.00
638.32	5944.00
638.77	6014.00
639.22	5848.00
639.67	5890.00
640.11	5884.00
640.56	5895.00
641.01	5896.00
641.46	5888.00
641.91	5893.00
642.36	5917.00
642.81	5916.00
643.25	5927.00
643.70	5889.00
644.15	5958.00
644.60	5892.00
645.05	5921.00
645.49	5844.00
645.94	5842.00
646.39	5849.00
646.84	5823.00
647.29	5797.00
647.73	5789.00
648.18	5774.00
648.63	5800.00
649.08	5765.00
649.53	5728.00
649.97	5709.00
650.42	5846.00
650.87	5853.00
651.32	5892.00
651.77	5847.00
652.21	5838.00
652.66	5886.00
653.11	5822.00
653.56	5931.00
654.00	5887.00
654.45	5779.00
654.90	5814.00
655.35	5734.00
655.79	5586.00
656.24	5364.00
656.69	5357.00
657.14	5483.00
657.58	5669.00
658.03	5774.00
658.48	5825.00
658.92	5801.00
659.37	5846.00
659.82	5834.00
660.27	5843.00
660.71	5881.00
661.16	5880.00
661.61	5934.00
662.05	5904.00
662.50	5841.00
662.95	5899.00
663.39	5890.00
663.84	5822.00
664.29	5873.00
664.74	5942.00
665.18	5866.00
665.63	5941.00
666.08	5942.00
666.52	5869.00
666.97	5926.00
667.42	5882.00
667.86	5847.00
668.31	5921.00
668.76	5891.00
669.20	5921.00
669.65	5893.00
670.09	5827.00
670.54	5913.00
670.99	5778.00
671.43	5885.00
671.88	5880.00
672.33	5820.00
672.77	5885.00
673.22	5872.00
673.66	5905.00
674.11	5915.00
674.56	5839.00
675.00	5849.00
675.45	5865.00
675.90	5869.00
676.34	5868.00
676.79	5840.00
677.23	5831.00
677.68	5812.00
678.12	5818.00
678.57	5822.00
679.02	5831.00
679.46	5812.00
679.91	5901.00
680.35	5884.00
680.80	5835.00
681.25	5816.00
681.69	5833.00
682.14	5806.00
682.58	5803.00
683.03	5741.00
683.47	5869.00
683.92	5760.00
684.36	5731.00
684.81	5768.00
685.25	5721.00
685.70	5758.00
686.15	5685.00
686.59	5456.00
687.04	5029.00
687.48	4838.00
687.93	4943.00
688.37	5187.00
688.82	5217.00
689.26	5228.00
689.71	5184.00
690.15	5307.00
690.60	5327.00
691.04	5365.00
691.49	5490.00
691.93	5485.00
692.38	5520.00
692.82	5540.00
693.27	5510.00
693.71	5506.00
694.16	5452.00
694.60	5409.00
695.04	5444.00
695.49	5484.00
695.93	5494.00
696.38	5525.00
696.82	5603.00
697.27	5634.00
697.71	5629.00
698.16	5619.00
698.60	5565.00
699.04	5515.00
699.49	5470.00
699.93	5473.00
700.38	5472.00
700.82	5476.00
701.27	5481.00
701.71	5457.00
702.15	5518.00
702.60	5482.00
703.04	5456.00
703.49	5515.00
703.93	5538.00
704.37	5595.00
704.82	5540.00
705.26	5549.00
705.71	5582.00
706.15	5514.00
706.59	5577.00
707.04	5598.00
707.48	5558.00
707.93	5562.00
708.37	5539.00
708.81	5578.00
709.26	5539.00
709.70	5489.00
710.14	5569.00
710.59	5550.00
711.03	5541.00
711.47	5554.00
711.92	5513.00
712.36	5509.00
712.80	5552.00
713.25	5452.00
713.69	5528.00
714.13	5561.00
714.58	5485.00
715.02	5408.00
715.46	5383.00
715.91	5404.00
716.35	5357.00
716.79	5120.00
717.24	4985.00
717.68	4888.00
718.12	4812.00
718.57	4762.00
719.01	4768.00
719.45	4661.00
719.89	4777.00
720.34	4692.00
720.78	4784.00
721.22	4983.00
721.66	5115.00
722.11	5162.00
722.55	5145.00
722.99	5083.00
723.44	4922.00
723.88	4855.00
724.32	4876.00
724.76	4870.00
725.21	4815.00
725.65	4849.00
726.09	4906.00
726.53	4944.00
726.97	4967.00
727.42	4910.00
727.86	4865.00
728.30	4859.00
728.74	4939.00
729.19	4834.00
729.63	4871.00
730.07	4939.00
730.51	4933.00
730.95	4935.00
731.40	4931.00
731.84	5019.00
732.28	5117.00
732.72	5166.00
733.16	5172.00
733.61	5165.00
734.05	5238.00
734.49	5285.00
734.93	5246.00
735.37	5173.00
735.81	5167.00
736.26	5226.00
736.70	5203.00
737.14	5211.00
737.58	5240.00
738.02	5284.00
738.46	5232.00
738.90	5172.00
739.35	5160.00
739.79	5272.00
740.23	5236.00
740.67	5260.00
741.11	5246.00
741.55	5194.00
741.99	5162.00
742.44	5192.00
742.88	5223.00
743.32	5281.00
743.76	5235.00
744.20	5304.00
744.64	5224.00
745.08	5246.00
745.52	5274.00
745.96	5293.00
746.40	5305.00
746.84	5340.00
747.29	5232.00
747.73	5291.00
748.17	5299.00
748.61	5296.00
749.05	5283.00
749.49	5270.00
749.93	5223.00
750.37	5306.00
750.81	5242.00
751.25	5298.00
751.69	5328.00
752.13	5265.00
752.57	5283.00
753.01	5270.00
753.45	5269.00
753.89	5252.00
754.33	5323.00
754.77	5232.00
755.21	5282.00
755.65	5281.00
756.09	5250.00
756.53	5214.00
756.97	5284.00
757.41	5246.00
757.85	5209.00
758.29	5237.00
758.73	5106.00
759.17	4970.00
759.61	4361.00
760.05	3615.00
760.49	3154.00
760.93	3057.00
761.37	3221.00
761.81	3735.00
762.25	3986.00
762.69	3759.00
763.13	3629.00
763.57	3592.00
764.01	3737.00
764.45	3834.00
764.89	4013.00
765.33	4155.00
765.77	4319.00
766.21	4460.00
766.65	4671.00
767.09	4780.00
767.53	4910.00
767.96	4953.00
768.40	5049.00
768.84	5028.00
769.28	5025.00
769.72	5112.00
770.16	5094.00
770.60	5193.00
771.04	5167.00
771.48	5158.00
771.92	5139.00
772.35	5190.00
772.79	5116.00
773.23	5190.00
773.67	5164.00
774.11	5160.00
774.55	5081.00
774.99	5086.00
775.43	5067.00
775.86	5127.00
776.30	5107.00
776.74	5145.00
777.18	5137.00
777.62	5113.00
778.06	5078.00
778.50	5080.00
778.93	5131.00
779.37	5051.00
779.81	5012.00
780.25	5021.00
780.69	5103.00
781.12	5059.00
781.56	5014.00
782.00	5060.00
782.44	5092.00
782.88	5104.00
783.32	5057.00
783.75	5060.00
784.19	5010.00
784.63	5034.00
785.07	5010.00
785.50	5034.00
785.94	4920.00
786.38	4988.00
786.82	5006.00
787.26	4988.00
787.69	5014.00
788.13	4912.00
788.57	4928.00
789.01	4931.00
789.44	4890.00
789.88	4838.00
790.32	4869.00
790.76	4837.00
791.19	4858.00
791.63	4833.00
792.07	4822.00
792.51	4829.00
792.94	4805.00
793.38	4760.00
793.82	4791.00
794.25	4825.00
794.69	4814.00
795.13	4788.00
795.56	4767.00
796.00	4822.00
796.44	4784.00
796.88	4794.00
797.31	4764.00
797.75	4827.00
798.19	4748.00
798.62	4795.00
799.06	4777.00
799.50	4758.00
799.93	4738.00
800.37	4729.00
800.81	4736.00
801.24	4755.00
801.68	4725.00
802.12	4768.00
802.55	4685.00
802.99	4678.00
803.43	4655.00
803.86	4714.00
804.30	4677.00
804.73	4625.00
805.17	4656.00
805.61	4685.00
806.04	4720.00
806.48	4760.00
806.92	4724.00
807.35	4706.00
807.79	4665.00
808.22	4677.00
808.66	4680.00
809.10	4628.00
809.53	4601.00
809.97	4575.00
810.40	4613.00
810.84	4544.00
811.27	4573.00
811.71	4584.00
812.15	4476.00
812.58	4482.00
813.02	4452.00
813.45	4352.00
813.89	4329.00
814.32	4298.00
814.76	4211.00
815.19	4168.00
815.63	4151.00
816.07	4154.00
816.50	4049.00
816.94	4135.00
817.37	4230.00
817.81	4108.00
818.24	4133.00
818.68	4216.00
819.11	4195.00
819.55	4174.00
819.98	4195.00
820.42	4319.00
820.85	4365.00
821.29	4378.00
821.72	4303.00
822.16	4227.00
822.59	4008.00
823.03	3830.00
823.46	3963.00
823.90	4161.00
824.33	4293.00
824.77	4371.00
825.20	4447.00
825.63	4342.00
826.07	4278.00
826.50	4399.00
826.94	4385.00
827.37	4203.00
827.81	4171.00
828.24	4153.00
828.68	4248.00
829.11	4178.00
829.54	4243.00
829.98	4249.00
830.41	4233.00
830.85	4245.00
831.28	4301.00
831.71	4259.00
832.15	4282.00
832.58	4338.00
833.02	4321.00
833.45	4303.00
833.88	4238.00
834.32	4262.00
834.75	4320.00
835.19	4321.00
835.62	4317.00
836.05	4341.00
836.49	4350.00
836.92	4343.00
837.35	4349.00
837.79	4340.00
838.22	4377.00
838.66	4395.00
839.09	4442.00
839.52	4431.00
839.96	4453.00
840.39	4439.00
840.82	4359.00
841.26	4346.00
841.69	4345.00
842.12	4378.00
842.56	4357.00
842.99	4352.00
843.42	4331.00
843.85	4335.00
844.29	4323.00
844.72	4389.00
845.15	4418.00
845.59	4432.00
846.02	4429.00
846.45	4388.00
846.88	4405.00
847.32	4346.00
847.75	4355.00
848.18	4321.00
848.62	4362.00
849.05	4372.00
849.48	4202.00
849.91	4203.00
850.35	4233.00
850.78	4310.00
851.21	4352.00
851.64	4304.00
852.08	4359.00
852.51	4333.00
852.94	4343.00
853.37	4285.00
853.80	4134.00
854.24	4010.00
854.67	4105.00
855.10	4241.00
855.53	4286.00
855.97	4286.00
856.40	4325.00
856.83	4322.00
857.26	4322.00
857.69	4337.00
858.13	4320.00
858.56	4307.00
858.99	4339.00
859.42	4314.00
859.85	4385.00
860.28	4385.00
860.72	4361.00
861.15	4361.00
861.58	4319.00
862.01	4323.00
862.44	4273.00
862.87	4314.00
863.30	4287.00
863.74	4299.00
864.17	4304.00
864.60	4275.00
865.03	4304.00
865.46	4226.00
865.89	4152.00
866.32	4062.00
866.75	4196.00
867.19	4271.00
867.62	4283.00
868.05	4290.00
868.48	4308.00
868.91	4253.00
869.34	4285.00
869.77	4263.00
870.20	4219.00
870.63	4209.00
871.06	4283.00
871.49	4246.00
871.93	4269.00
872.36	4278.00
872.79	4212.00
873.22	4230.00
873.65	4226.00
874.08	4250.00
874.51	4242.00
874.94	4235.00
875.37	4253.00
875.80	4275.00
876.23	4273.00
876.66	4211.00
877.09	4204.00
877.52	4202.00
877.95	4210.00
878.38	4164.00
878.81	4132.00
879.24	4134.00
879.67	4179.00
880.10	4194.00
880.53	4074.00
880.96	4156.00
881.39	4187.00
881.82	4203.00
882.25	4185.00
882.68	4255.00
883.11	4242.00
883.54	4219.00
883.97	4294.00
884.40	4200.00
884.83	4211.00
885.26	4179.00
885.69	4165.00
886.12	4149.00
886.55	4093.00
886.98	4148.00
887.40	4148.00
887.83	4134.00
888.26	4177.00
888.69	4181.00
889.12	4149.00
889.55	4161.00
889.98	4195.00
890.41	4162.00
890.84	4207.00
891.27	4162.00
891.70	4184.00
892.12	4128.00
892.55	4112.00
892.98	4094.00
893.41	4075.00
893.84	4029.00
894.27	4008.00
894.70	3939.00
895.13	3891.00
895.55	3890.00
895.98	3833.00
896.41	3803.00
896.84	3788.00
897.27	3799.00
897.70	3838.00
898.13	3776.00
898.55	3580.00
898.98	3619.00
899.41	3784.00
899.84	3746.00
900.27	3689.00
900.70	3686.00
901.12	3689.00
901.55	3688.00
901.98	3717.00
902.41	3688.00
902.84	3795.00
903.26	3907.00
903.69	3912.00
904.12	3909.00
904.55	3915.00
904.97	3880.00
905.40	3898.00
905.83	3790.00
906.26	3789.00
906.69	3731.00
907.11	3704.00
907.54	3710.00
907.97	3702.00
908.40	3650.00
908.82	3678.00
909.25	3658.00
909.68	3660.00
910.10	3641.00
910.53	3644.00
910.96	3755.00
911.39	3679.00
911.81	3685.00
912.24	3724.00
912.67	3570.00
913.09	3532.00
913.52	3612.00
913.95	3689.00
914.38	3671.00
914.80	3573.00
915.23	3534.00
915.66	3620.00
916.08	3719.00
916.51	3668.00
916.94	3545.00
917.36	3544.00
917.79	3665.00
918.22	3678.00
918.64	3709.00
919.07	3696.00
919.50	3744.00
919.92	3748.00
920.35	3717.00
920.78	3718.00
921.20	3688.00
921.63	3714.00
922.05	3733.00
922.48	3698.00
922.91	3671.00
923.33	3642.00
923.76	3616.00
924.18	3619.00
924.61	3699.00
925.04	3641.00
925.46	3631.00
925.89	3612.00
926.31	3646.00
926.74	3573.00
927.17	3494.00
927.59	3425.00
928.02	3366.00
928.44	3345.00
928.87	3326.00
929.29	3245.00
929.72	3207.00
930.15	3200.00
930.57	3117.00
931.00	3059.00
931.42	2995.00
931.85	2948.00
932.27	2988.00
932.70	2944.00
933.12	2874.00
933.55	2856.00
933.97	2851.00
934.40	2959.00
934.82	2915.00
935.25	2861.00
935.67	2903.00
936.10	2883.00
936.52	2832.00
936.95	2842.00
937.37	2856.00
937.80	2877.00
938.22	2945.00
938.65	3009.00
939.07	3058.00
939.50	2995.00
939.92	2943.00
940.35	2928.00
940.77	2914.00
941.19	2921.00
941.62	2937.00
942.04	2912.00
942.47	2861.00
942.89	2923.00
943.32	2830.00
943.74	2825.00
944.16	2884.00
944.59	2887.00
945.01	2861.00
945.44	2842.00
945.86	2881.00
946.29	2877.00
946.71	2926.00
947.13	2899.00
947.56	2871.00
947.98	2924.00
948.40	2973.00
948.83	2914.00
949.25	2845.00
949.68	2907.00
950.10	2987.00
950.52	3020.00
950.95	2986.00
951.37	2899.00
951.79	2883.00
952.22	2917.00
952.64	3017.00
953.06	3009.00
953.49	3010.00
953.91	2970.00
954.33	2985.00
954.76	2968.00
955.18	3029.00
955.60	2988.00
956.03	2978.00
956.45	3042.00
956.87	3110.00
957.30	3078.00
957.72	3064.00
958.14	3011.00
958.56	2987.00
958.99	3040.00
959.41	3111.00
959.83	3079.00
960.26	3106.00
960.68	3155.00
961.10	3133.00
961.52	3101.00
961.95	3126.00
962.37	3214.00
962.79	3162.00
963.21	3140.00
963.64	3139.00
964.06	3153.00
964.48	3212.00
964.90	3227.00
965.32	3148.00
965.75	3149.00
966.17	3241.00
966.59	3281.00
967.01	3311.00
967.44	3289.00
967.86	3351.00
968.28	3330.00
968.70	3392.00
969.12	3317.00
969.54	3395.00
969.97	3357.00
970.39	3380.00
970.81	3352.00
971.23	3347.00
971.65	3314.00
972.07	3330.00
972.50	3286.00
972.92	3268.00
973.34	3308.00
973.76	3289.00
974.18	3280.00
974.60	3246.00
975.02	3245.00
975.45	3267.00
975.87	3308.00
976.29	3320.00
976.71	3320.00
977.13	3291.00
977.55	3286.00
977.97	3304.00
978.39	3300.00
978.81	3290.00
979.24	3298.00
979.66	3327.00
980.08	3388.00
980.50	3400.00
980.92	3342.00
981.34	3341.00
981.76	3351.00
982.18	3341.00
982.60	3347.00
983.02	3366.00
983.44	3332.00
983.86	3355.00
984.28	3354.00
984.70	3366.00
985.12	3333.00
985.54	3365.00
985.96	3339.00
986.38	3334.00
986.80	3329.00
987.23	3347.00
987.65	3342.00
988.07	3367.00
988.49	3346.00
988.91	3351.00
989.33	3346.00
989.74	3362.00
990.16	3351.00
990.58	3333.00
991.00	3355.00
991.42	3326.00
991.84	3334.00
992.26	3323.00
992.68	3355.00
993.10	3341.00
993.52	3328.00
993.94	3326.00
994.36	3321.00
994.78	3323.00
995.20	3309.00
995.62	3304.00
996.04	3293.00
996.46	3302.00
996.88	3344.00
997.30	3299.00
997.71	3360.00
998.13	3327.00
998.55	3349.00
998.97	3341.00
999.39	3360.00
999.81	3337.00
1000.23	3345.00
1000.65	3344.00
1001.07	3322.00
1001.49	3315.00
1001.90	3325.00
1002.32	3343.00
1002.74	3321.00
1003.16	3328.00
1003.58	3297.00
1004.00	3294.00
1004.42	3290.00
1004.83	3307.00
1005.25	3275.00
1005.67	3302.00
1006.09	3292.00
1006.51	3279.00
1006.92	3268.00
1007.34	3298.00
1007.76	3283.00
1008.18	3277.00
1008.60	3256.00
1009.02	3301.00
1009.43	3297.00
1009.85	3261.00
1010.27	3266.00
1010.69	3261.00
1011.10	3249.00
1011.52	3258.00
1011.94	3238.00
1012.36	3227.00
1012.78	3260.00
1013.19	3238.00
1013.61	3256.00
1014.03	3231.00
1014.45	3232.00
1014.86	3230.00
1015.28	3222.00
1015.70	3208.00
1016.12	3196.00
1016.53	3202.00
1016.95	3203.00
1017.37	3169.00
1017.78	3161.00
1018.20	3156.00
1018.62	3147.00
1019.03	3137.00
1019.45	3146.00
1019.87	3159.00
1020.29	3152.00
1020.70	3151.00
1021.12	3131.00
1021.54	3112.00
1021.95	3153.00
1022.37	3139.00
1022.79	3143.00
1023.20	3124.00
1023.62	3112.00
1024.04	3116.00
1024.45	3088.00
1024.87	3094.00
1025.28	3062.00
1025.70	3077.00
1026.12	3099.00
1026.53	3103.00
1026.95	3074.00
1027.37	3081.00
1027.78	3077.00
1028.20	3087.00
1028.61	3053.00
1029.03	3032.00
1029.45	3055.00
1029.86	3026.00
1030.28	3038.00
1030.69	3030.00
1031.11	3012.00
1031.53	3021.00
1031.94	3026.00
1032.36	3015.00
1032.77	3010.00
1033.19	3014.00
1033.60	3011.00
1034.02	3022.00
1034.43	3003.00
1034.85	3004.00
1035.27	2986.00
1035.68	2989.00
1036.10	2990.00
1036.51	2995.00
1036.93	3005.00
1037.34	2959.00
1037.76	2968.00
1038.17	2971.00
1038.59	2966.00
1039.00	2966.00
1039.42	2958.00
1039.83	2968.00
1040.25	2949.00
1040.66	2944.00
1041.08	2923.00
1041.49	2921.00
1041.91	2924.00
1042.32	2943.00
1042.73	2928.00
1043.15	2931.00
1043.56	2911.00
1043.98	2925.00
1044.39	2898.00
1044.81	2906.00
1045.22	2915.00
1045.64	2893.00
1046.05	2886.00
1046.46	2903.00
1046.88	2884.00
1047.29	2882.00
1047.71	2878.00
1048.12	2882.00
1048.53	2889.00
1048.95	2867.00
1049.36	2872.00
1049.78	2877.00
1050.19	2848.00
1050.60	2854.00
1051.02	2852.00
1051.43	2843.00
1051.85	2828.00
1052.26	2853.00
1052.67	2845.00
1053.09	2815.00
1053.50	2851.00
1053.91	2828.00
1054.33	2848.00
1054.74	2806.00
1055.15	2820.00
1055.57	2803.00
1055.98	2813.00
1056.39	2795.00
1056.81	2805.00
1057.22	2797.00
1057.63	2798.00
1058.05	2811.00
1058.46	2787.00
1058.87	2781.00
1059.28	2793.00
1059.70	2794.00
1060.11	2790.00
1060.52	2789.00
1060.94	2781.00
1061.35	2772.00
1061.76	2778.00
1062.17	2767.00
1062.59	2779.00
1063.00	2776.00
1063.41	2759.00
1063.82	2773.00
1064.24	2778.00
1064.65	2752.00
1065.06	2758.00
1065.47	2755.00
1065.89	2751.00
1066.30	2751.00
1066.71	2761.00
1067.12	2743.00
1067.53	2745.00
1067.95	2737.00
1068.36	2731.00
1068.77	2727.00
1069.18	2738.00
1069.59	2731.00
1070.00	2723.00
1070.42	2732.00
1070.83	2732.00
1071.24	2718.00
1071.65	2725.00
1072.06	2718.00
1072.47	2724.00
1072.89	2721.00
1073.30	2713.00
1073.71	2714.00
1074.12	2712.00
1074.53	2725.00
1074.94	2717.00
1075.35	2706.00
1075.77	2701.00
1076.18	2697.00
1076.59	2704.00
1077.00	2710.00
1077.41	2716.00
1077.82	2688.00
1078.23	2697.00
1078.64	2704.00
1079.05	2699.00
1079.46	2708.00
1079.87	2694.00
1080.29	2682.00
1080.70	2681.00
1081.11	2690.00
1081.52	2677.00
1081.93	2701.00
1082.34	2679.00
1082.75	2691.00
1083.16	2686.00
1083.57	2679.00
1083.98	2682.00
1084.39	2679.00
1084.80	2664.00
1085.21	2668.00
1085.62	2673.00
1086.03	2703.00
1086.44	2660.00
1086.85	2660.00
1087.26	2669.00
1087.67	2669.00
1088.08	2669.00
1088.49	2664.00
1088.90	2665.00
1089.31	2674.00
1089.72	2660.00
1090.13	2658.00
1090.54	2667.00
1090.95	2656.00
1091.36	2655.00
1091.77	2659.00
1092.18	2660.00
1092.59	2659.00
1093.00	2663.00
1093.40	2646.00
1093.81	2653.00
1094.22	2642.00
1094.63	2640.00
1095.04	2645.00
1095.45	2633.00
1095.86	2638.00
1096.27	2638.00
1096.68	2647.00
1097.09	2627.00
1097.50	2629.00
1097.90	2624.00
1098.31	2626.00
1098.72	2629.00
1099.13	2625.00
1099.54	2640.00
1099.95	2628.00
1100.36	2627.00
1100.76	2627.00
1101.17	2631.00
1101.58	2630.00
1101.99	2621.00
1102.40	2625.00
1102.81	2623.00
1103.22	2622.00
1103.62	2623.00
1104.03	2621.00
1104.44	2618.00
1104.85	2613.00
1105.26	2628.00
1105.66	2620.00
1106.07	2616.00
1106.48	2627.00
1106.89	2613.00
1107.30	2611.00
1107.70	2610.00
1108.11	2618.00
1108.52	2605.00
1108.93	2611.00
1109.33	2614.00
1109.74	2607.00
1110.15	2609.00
1110.56	2614.00
1110.96	2608.00
1111.37	2604.00
1111.78	2606.00
1112.19	2613.00
1112.59	2609.00
1113.00	2608.00
1113.41	2605.00
1113.81	2606.00
1114.22	2601.00
1114.63	2576.00
1115.03	2577.00
1115.44	2576.00
1115.85	2575.00
>>>>>End Processed Spectral Data<<<<<
