SpectraSuite Data File
++++++++++++++++++++++++++++++++++++
Date: Thu Aug 05 10:45:31 EEST 2021
User: CanSEE
Dark Spectrum Present: No
Reference Spectrum Present: No
Number of Sampled Component Spectra: 1
Spectrometers: MAYP112785
Integration Time (usec): 10000 (MAYP112785)
Spectra Averaged: 1 (MAYP112785)
Boxcar Smoothing: 0 (MAYP112785)
Correct for Electrical Dark: No (MAYP112785)
Strobe/Lamp Enabled: No (MAYP112785)
Correct for Detector Non-linearity: No (MAYP112785)
Correct for Stray Light: No (MAYP112785)
Number of Pixels in Processed Spectrum: 2068
>>>>>Begin Processed Spectral Data<<<<<
198.35	3479.00
198.82	2487.00
199.30	2590.00
199.77	2574.00
200.24	2605.00
200.71	2599.00
201.18	2607.00
201.65	2613.00
202.13	2604.00
202.60	2607.00
203.07	2603.00
203.54	2606.00
204.01	2613.00
204.48	2607.00
204.96	2606.00
205.43	2601.00
205.90	2604.00
206.37	2606.00
206.84	2597.00
207.31	2596.00
207.78	2605.00
208.26	2606.00
208.73	2610.00
209.20	2605.00
209.67	2615.00
210.14	2605.00
210.61	2602.00
211.08	2612.00
211.56	2598.00
212.03	2616.00
212.50	2609.00
212.97	2615.00
213.44	2608.00
213.91	2610.00
214.38	2601.00
214.85	2603.00
215.33	2605.00
215.80	2605.00
216.27	2610.00
216.74	2614.00
217.21	2609.00
217.68	2604.00
218.15	2598.00
218.62	2611.00
219.09	2602.00
219.57	2612.00
220.04	2597.00
220.51	2600.00
220.98	2609.00
221.45	2601.00
221.92	2613.00
222.39	2606.00
222.86	2597.00
223.33	2606.00
223.80	2607.00
224.27	2602.00
224.74	2605.00
225.22	2598.00
225.69	2609.00
226.16	2613.00
226.63	2610.00
227.10	2601.00
227.57	2601.00
228.04	2609.00
228.51	2602.00
228.98	2608.00
229.45	2604.00
229.92	2607.00
230.39	2604.00
230.86	2613.00
231.33	2603.00
231.80	2610.00
232.27	2601.00
232.75	2605.00
233.22	2599.00
233.69	2596.00
234.16	2611.00
234.63	2614.00
235.10	2605.00
235.57	2603.00
236.04	2613.00
236.51	2606.00
236.98	2612.00
237.45	2606.00
237.92	2610.00
238.39	2603.00
238.86	2602.00
239.33	2672.00
239.80	2603.00
240.27	2610.00
240.74	2606.00
241.21	2610.00
241.68	2609.00
242.15	2611.00
242.62	2602.00
243.09	2604.00
243.56	2606.00
244.03	2611.00
244.50	2606.00
244.97	2606.00
245.44	2631.00
245.91	2608.00
246.38	2608.00
246.85	2615.00
247.32	2608.00
247.79	2606.00
248.26	2607.00
248.73	2610.00
249.20	2608.00
249.67	2604.00
250.14	2613.00
250.61	2605.00
251.08	2609.00
251.55	2616.00
252.02	2600.00
252.49	2601.00
252.96	2607.00
253.43	2606.00
253.90	2615.00
254.37	2602.00
254.84	2603.00
255.31	2600.00
255.77	2614.00
256.24	2614.00
256.71	2610.00
257.18	2619.00
257.65	2609.00
258.12	2605.00
258.59	2604.00
259.06	2607.00
259.53	2610.00
260.00	2615.00
260.47	2608.00
260.94	2612.00
261.41	2609.00
261.88	2615.00
262.35	2602.00
262.81	2605.00
263.28	2606.00
263.75	2606.00
264.22	2598.00
264.69	2608.00
265.16	2601.00
265.63	2613.00
266.10	2605.00
266.57	2603.00
267.04	2609.00
267.51	2605.00
267.97	2612.00
268.44	2598.00
268.91	2615.00
269.38	2607.00
269.85	2611.00
270.32	2614.00
270.79	2613.00
271.26	2599.00
271.73	2611.00
272.19	2603.00
272.66	2612.00
273.13	2601.00
273.60	2608.00
274.07	2605.00
274.54	2611.00
275.01	2616.00
275.48	2603.00
275.94	2612.00
276.41	2611.00
276.88	2603.00
277.35	2600.00
277.82	2608.00
278.29	2613.00
278.76	2608.00
279.22	2609.00
279.69	2600.00
280.16	2614.00
280.63	2602.00
281.10	2607.00
281.57	2607.00
282.04	2606.00
282.50	2605.00
282.97	2611.00
283.44	2614.00
283.91	2605.00
284.38	2609.00
284.85	2605.00
285.31	2605.00
285.78	2607.00
286.25	2607.00
286.72	2615.00
287.19	2604.00
287.65	2621.00
288.12	2606.00
288.59	2603.00
289.06	2610.00
289.53	2613.00
289.99	2596.00
290.46	2605.00
290.93	2606.00
291.40	2613.00
291.87	2610.00
292.33	2609.00
292.80	2605.00
293.27	2610.00
293.74	2614.00
294.21	2604.00
294.67	2612.00
295.14	2604.00
295.61	2612.00
296.08	2611.00
296.54	2611.00
297.01	2610.00
297.48	2604.00
297.95	2602.00
298.42	2607.00
298.88	2609.00
299.35	2612.00
299.82	2612.00
300.29	2601.00
300.75	2607.00
301.22	2610.00
301.69	2610.00
302.16	2613.00
302.62	2602.00
303.09	2607.00
303.56	2610.00
304.03	2605.00
304.49	2611.00
304.96	2616.00
305.43	2619.00
305.90	2615.00
306.36	2617.00
306.83	2615.00
307.30	2612.00
307.76	2624.00
308.23	2626.00
308.70	2626.00
309.17	2628.00
309.63	2635.00
310.10	2626.00
310.57	2633.00
311.03	2641.00
311.50	2651.00
311.97	2649.00
312.44	2654.00
312.90	2648.00
313.37	2660.00
313.84	2655.00
314.30	2667.00
314.77	2667.00
315.24	2674.00
315.70	2670.00
316.17	2666.00
316.64	2683.00
317.10	2687.00
317.57	2701.00
318.04	2691.00
318.50	2700.00
318.97	2707.00
319.44	2706.00
319.90	2704.00
320.37	2703.00
320.84	2724.00
321.30	2717.00
321.77	2707.00
322.24	2723.00
322.70	2710.00
323.17	2722.00
323.64	2737.00
324.10	2746.00
324.57	2738.00
325.04	2753.00
325.50	2775.00
325.97	2785.00
326.44	2805.00
326.90	2813.00
327.37	2803.00
327.84	2799.00
328.30	2808.00
328.77	2793.00
329.23	2847.00
329.70	2853.00
330.17	2847.00
330.63	2844.00
331.10	2816.00
331.56	2848.00
332.03	2840.00
332.50	2813.00
332.96	2843.00
333.43	2822.00
333.90	2834.00
334.36	2834.00
334.83	2840.00
335.29	2844.00
335.76	2841.00
336.22	2818.00
336.69	2811.00
337.16	2819.00
337.62	2810.00
338.09	2834.00
338.55	2862.00
339.02	2855.00
339.49	2843.00
339.95	2869.00
340.42	2891.00
340.88	2882.00
341.35	2886.00
341.81	2883.00
342.28	2879.00
342.75	2899.00
343.21	2889.00
343.68	2887.00
344.14	2866.00
344.61	2850.00
345.07	2868.00
345.54	2891.00
346.00	2885.00
346.47	2909.00
346.93	2918.00
347.40	2925.00
347.87	2902.00
348.33	2893.00
348.80	2909.00
349.26	2891.00
349.73	2921.00
350.19	2928.00
350.66	2960.00
351.12	2955.00
351.59	2972.00
352.05	2956.00
352.52	2928.00
352.98	2931.00
353.45	2941.00
353.91	2962.00
354.38	2984.00
354.84	2962.00
355.31	2970.00
355.77	2975.00
356.24	2948.00
356.70	2947.00
357.17	2912.00
357.63	2904.00
358.10	2896.00
358.56	2897.00
359.03	2920.00
359.49	2961.00
359.96	2987.00
360.42	3005.00
360.89	2982.00
361.35	2949.00
361.82	2959.00
362.28	2979.00
362.75	3003.00
363.21	3016.00
363.67	2997.00
364.14	3023.00
364.60	3008.00
365.07	2996.00
365.53	3036.00
366.00	3089.00
366.46	3095.00
366.93	3078.00
367.39	3083.00
367.86	3080.00
368.32	3087.00
368.78	3081.00
369.25	3084.00
369.71	3103.00
370.18	3092.00
370.64	3123.00
371.11	3062.00
371.57	3089.00
372.03	3089.00
372.50	3047.00
372.96	3067.00
373.43	3025.00
373.89	3023.00
374.35	2997.00
374.82	3033.00
375.28	3060.00
375.75	3099.00
376.21	3130.00
376.67	3121.00
377.14	3150.00
377.60	3198.00
378.07	3218.00
378.53	3228.00
378.99	3211.00
379.46	3162.00
379.92	3132.00
380.39	3144.00
380.85	3182.00
381.31	3136.00
381.78	3099.00
382.24	3051.00
382.70	3016.00
383.17	2994.00
383.63	3006.00
384.09	3039.00
384.56	3091.00
385.02	3153.00
385.48	3174.00
385.95	3139.00
386.41	3153.00
386.88	3170.00
387.34	3175.00
387.80	3185.00
388.27	3205.00
388.73	3203.00
389.19	3243.00
389.66	3272.00
390.12	3333.00
390.58	3315.00
391.05	3318.00
391.51	3340.00
391.97	3307.00
392.43	3238.00
392.90	3158.00
393.36	3083.00
393.82	3068.00
394.29	3159.00
394.75	3269.00
395.21	3332.00
395.68	3347.00
396.14	3300.00
396.60	3220.00
397.07	3157.00
397.53	3259.00
397.99	3447.00
398.45	3527.00
398.92	3642.00
399.38	3663.00
399.84	3719.00
400.31	3702.00
400.77	3747.00
401.23	3755.00
401.69	3791.00
402.16	3809.00
402.62	3787.00
403.08	3798.00
403.54	3770.00
404.01	3817.00
404.47	3820.00
404.93	3731.00
405.39	3779.00
405.86	3768.00
406.32	3759.00
406.78	3791.00
407.24	3806.00
407.71	3817.00
408.17	3847.00
408.63	3822.00
409.09	3892.00
409.56	3922.00
410.02	3855.00
410.48	3810.00
410.94	3815.00
411.40	3975.00
411.87	3948.00
412.33	3994.00
412.79	3983.00
413.25	3960.00
413.71	3959.00
414.18	3990.00
414.64	4035.00
415.10	3977.00
415.56	4024.00
416.02	3999.00
416.49	4051.00
416.95	4055.00
417.41	3990.00
417.87	3989.00
418.33	4010.00
418.80	3996.00
419.26	4015.00
419.72	4020.00
420.18	4041.00
420.64	4028.00
421.10	4110.00
421.57	4125.00
422.03	4038.00
422.49	4050.00
422.95	4023.00
423.41	4014.00
423.87	4081.00
424.34	4079.00
424.80	4045.00
425.26	4063.00
425.72	4014.00
426.18	4049.00
426.64	4047.00
427.10	4036.00
427.57	4018.00
428.03	4030.00
428.49	4050.00
428.95	3960.00
429.41	3926.00
429.87	3901.00
430.33	3856.00
430.79	3849.00
431.26	3869.00
431.72	4003.00
432.18	4148.00
432.64	4232.00
433.10	4103.00
433.56	4222.00
434.02	4154.00
434.48	4186.00
434.94	4216.00
435.40	4326.00
435.87	4339.00
436.33	4347.00
436.79	4367.00
437.25	4357.00
437.71	4262.00
438.17	4311.00
438.63	4287.00
439.09	4260.00
439.55	4286.00
440.01	4394.00
440.47	4388.00
440.93	4387.00
441.39	4470.00
441.85	4494.00
442.32	4521.00
442.78	4572.00
443.24	4601.00
443.70	4551.00
444.16	4553.00
444.62	4620.00
445.08	4612.00
445.54	4587.00
446.00	4589.00
446.46	4519.00
446.92	4633.00
447.38	4679.00
447.84	4726.00
448.30	4745.00
448.76	4712.00
449.22	4765.00
449.68	4772.00
450.14	4861.00
450.60	4814.00
451.06	4926.00
451.52	4817.00
451.98	4826.00
452.44	4759.00
452.90	4744.00
453.36	4730.00
453.82	4802.00
454.28	4791.00
454.74	4848.00
455.20	4900.00
455.66	4839.00
456.12	4857.00
456.58	4926.00
457.04	4935.00
457.50	4946.00
457.96	4910.00
458.42	4878.00
458.88	4911.00
459.34	4889.00
459.80	4900.00
460.26	4926.00
460.72	5021.00
461.18	5030.00
461.64	5014.00
462.10	4960.00
462.55	5041.00
463.01	4975.00
463.47	5059.00
463.93	5011.00
464.39	4997.00
464.85	4965.00
465.31	4987.00
465.77	4968.00
466.23	4959.00
466.69	4964.00
467.15	4941.00
467.61	4937.00
468.07	4993.00
468.52	5045.00
468.98	5010.00
469.44	5005.00
469.90	5014.00
470.36	5051.00
470.82	5095.00
471.28	5071.00
471.74	5088.00
472.20	5102.00
472.66	5160.00
473.11	5107.00
473.57	5110.00
474.03	5092.00
474.49	5113.00
474.95	5155.00
475.41	5138.00
475.87	5118.00
476.33	5146.00
476.78	5165.00
477.24	5149.00
477.70	5197.00
478.16	5239.00
478.62	5244.00
479.08	5189.00
479.54	5208.00
479.99	5278.00
480.45	5300.00
480.91	5276.00
481.37	5293.00
481.83	5276.00
482.29	5284.00
482.74	5290.00
483.20	5247.00
483.66	5294.00
484.12	5224.00
484.58	5156.00
485.04	5089.00
485.49	5037.00
485.95	5031.00
486.41	4845.00
486.87	4931.00
487.33	5100.00
487.78	5138.00
488.24	5157.00
488.70	5172.00
489.16	5256.00
489.62	5219.00
490.07	5342.00
490.53	5327.00
490.99	5305.00
491.45	5227.00
491.90	5225.00
492.36	5233.00
492.82	5311.00
493.28	5341.00
493.74	5313.00
494.19	5324.00
494.65	5349.00
495.11	5401.00
495.57	5344.00
496.02	5339.00
496.48	5364.00
496.94	5424.00
497.40	5379.00
497.85	5315.00
498.31	5366.00
498.77	5293.00
499.23	5282.00
499.68	5324.00
500.14	5318.00
500.60	5250.00
501.06	5207.00
501.51	5253.00
501.97	5255.00
502.43	5259.00
502.88	5294.00
503.34	5300.00
503.80	5353.00
504.26	5318.00
504.71	5295.00
505.17	5354.00
505.63	5469.00
506.08	5403.00
506.54	5419.00
507.00	5406.00
507.45	5381.00
507.91	5373.00
508.37	5424.00
508.82	5377.00
509.28	5421.00
509.74	5457.00
510.19	5455.00
510.65	5493.00
511.11	5476.00
511.56	5478.00
512.02	5510.00
512.48	5515.00
512.93	5427.00
513.39	5421.00
513.85	5429.00
514.30	5357.00
514.76	5386.00
515.22	5489.00
515.67	5412.00
516.13	5295.00
516.59	5244.00
517.04	5130.00
517.50	5181.00
517.95	5141.00
518.41	5321.00
518.87	5328.00
519.32	5300.00
519.78	5391.00
520.24	5425.00
520.69	5445.00
521.15	5526.00
521.60	5526.00
522.06	5514.00
522.52	5481.00
522.97	5557.00
523.43	5522.00
523.88	5580.00
524.34	5640.00
524.80	5608.00
525.25	5586.00
525.71	5560.00
526.16	5492.00
526.62	5395.00
527.07	5415.00
527.53	5444.00
527.99	5489.00
528.44	5682.00
528.90	5615.00
529.35	5688.00
529.81	5699.00
530.26	5721.00
530.72	5657.00
531.17	5724.00
531.63	5735.00
532.09	5644.00
532.54	5643.00
533.00	5595.00
533.45	5578.00
533.91	5614.00
534.36	5688.00
534.82	5670.00
535.27	5758.00
535.73	5732.00
536.18	5718.00
536.64	5695.00
537.09	5658.00
537.55	5696.00
538.00	5621.00
538.46	5644.00
538.91	5676.00
539.37	5655.00
539.82	5583.00
540.28	5565.00
540.73	5619.00
541.19	5606.00
541.64	5577.00
542.10	5676.00
542.55	5665.00
543.01	5609.00
543.46	5653.00
543.92	5696.00
544.37	5729.00
544.83	5738.00
545.28	5749.00
545.74	5715.00
546.19	5818.00
546.64	5740.00
547.10	5776.00
547.55	5715.00
548.01	5756.00
548.46	5696.00
548.92	5670.00
549.37	5783.00
549.83	5812.00
550.28	5746.00
550.73	5797.00
551.19	5824.00
551.64	5821.00
552.10	5783.00
552.55	5760.00
553.00	5755.00
553.46	5758.00
553.91	5778.00
554.37	5864.00
554.82	5871.00
555.28	5882.00
555.73	5895.00
556.18	5865.00
556.64	5703.00
557.09	5714.00
557.54	5744.00
558.00	5724.00
558.45	5681.00
558.91	5690.00
559.36	5670.00
559.81	5682.00
560.27	5673.00
560.72	5715.00
561.17	5805.00
561.63	5784.00
562.08	5767.00
562.54	5780.00
562.99	5736.00
563.44	5761.00
563.90	5799.00
564.35	5799.00
564.80	5748.00
565.26	5736.00
565.71	5758.00
566.16	5762.00
566.62	5686.00
567.07	5816.00
567.52	5743.00
567.98	5829.00
568.43	5763.00
568.88	5705.00
569.34	5700.00
569.79	5710.00
570.24	5700.00
570.69	5712.00
571.15	5658.00
571.60	5717.00
572.05	5777.00
572.51	5782.00
572.96	5736.00
573.41	5818.00
573.86	5815.00
574.32	5762.00
574.77	5729.00
575.22	5760.00
575.68	5793.00
576.13	5755.00
576.58	5708.00
577.03	5763.00
577.49	5782.00
577.94	5765.00
578.39	5731.00
578.84	5727.00
579.30	5748.00
579.75	5797.00
580.20	5835.00
580.65	5842.00
581.11	5893.00
581.56	5909.00
582.01	5930.00
582.46	5904.00
582.92	5973.00
583.37	5908.00
583.82	5946.00
584.27	5890.00
584.72	5881.00
585.18	5817.00
585.63	5832.00
586.08	5857.00
586.53	5802.00
586.98	5887.00
587.44	5827.00
587.89	5838.00
588.34	5700.00
588.79	5632.00
589.24	5474.00
589.70	5556.00
590.15	5563.00
590.60	5738.00
591.05	5725.00
591.50	5780.00
591.96	5780.00
592.41	5810.00
592.86	5812.00
593.31	5819.00
593.76	5765.00
594.21	5766.00
594.66	5742.00
595.12	5734.00
595.57	5744.00
596.02	5747.00
596.47	5826.00
596.92	5814.00
597.37	5780.00
597.82	5785.00
598.28	5828.00
598.73	5796.00
599.18	5840.00
599.63	5799.00
600.08	5847.00
600.53	5840.00
600.98	5783.00
601.43	5773.00
601.88	5759.00
602.34	5764.00
602.79	5804.00
603.24	5871.00
603.69	5881.00
604.14	5900.00
604.59	5880.00
605.04	5872.00
605.49	5887.00
605.94	5879.00
606.39	5830.00
606.84	5903.00
607.30	5904.00
607.75	5878.00
608.20	5848.00
608.65	5842.00
609.10	5888.00
609.55	5923.00
610.00	5870.00
610.45	5861.00
610.90	5885.00
611.35	5863.00
611.80	5873.00
612.25	5886.00
612.70	5889.00
613.15	5809.00
613.60	5816.00
614.05	5847.00
614.50	5880.00
614.95	5865.00
615.40	5836.00
615.85	5803.00
616.30	5720.00
616.75	5748.00
617.20	5768.00
617.65	5811.00
618.10	5860.00
618.55	5836.00
619.00	5856.00
619.45	5896.00
619.90	5898.00
620.35	5914.00
620.80	5891.00
621.25	5885.00
621.70	5855.00
622.15	5847.00
622.60	5787.00
623.05	5805.00
623.50	5805.00
623.95	5829.00
624.40	5830.00
624.85	5809.00
625.30	5750.00
625.75	5761.00
626.20	5834.00
626.65	5824.00
627.10	5813.00
627.55	5779.00
627.99	5771.00
628.44	5763.00
628.89	5716.00
629.34	5781.00
629.79	5760.00
630.24	5748.00
630.69	5779.00
631.14	5800.00
631.59	5734.00
632.04	5784.00
632.49	5853.00
632.94	5819.00
633.38	5811.00
633.83	5840.00
634.28	5812.00
634.73	5812.00
635.18	5937.00
635.63	5876.00
636.08	5849.00
636.53	5846.00
636.97	5936.00
637.42	5963.00
637.87	5965.00
638.32	5940.00
638.77	5925.00
639.22	5966.00
639.67	5912.00
640.11	5911.00
640.56	5860.00
641.01	5863.00
641.46	5844.00
641.91	5853.00
642.36	5947.00
642.81	5971.00
643.25	5915.00
643.70	5906.00
644.15	5975.00
644.60	5894.00
645.05	5907.00
645.49	5917.00
645.94	5863.00
646.39	5854.00
646.84	5796.00
647.29	5779.00
647.73	5792.00
648.18	5759.00
648.63	5858.00
649.08	5758.00
649.53	5828.00
649.97	5739.00
650.42	5841.00
650.87	5887.00
651.32	5865.00
651.77	5765.00
652.21	5747.00
652.66	5862.00
653.11	5828.00
653.56	5830.00
654.00	5853.00
654.45	5848.00
654.90	5819.00
655.35	5735.00
655.79	5573.00
656.24	5374.00
656.69	5356.00
657.14	5496.00
657.58	5651.00
658.03	5782.00
658.48	5817.00
658.92	5811.00
659.37	5854.00
659.82	5862.00
660.27	5830.00
660.71	5888.00
661.16	5907.00
661.61	5951.00
662.05	5957.00
662.50	5950.00
662.95	5933.00
663.39	5902.00
663.84	5858.00
664.29	5845.00
664.74	5927.00
665.18	5965.00
665.63	5956.00
666.08	5871.00
666.52	5852.00
666.97	5859.00
667.42	5829.00
667.86	5896.00
668.31	5894.00
668.76	5911.00
669.20	5919.00
669.65	5919.00
670.09	5875.00
670.54	5891.00
670.99	5846.00
671.43	5823.00
671.88	5875.00
672.33	5805.00
672.77	5876.00
673.22	5809.00
673.66	5892.00
674.11	5841.00
674.56	5904.00
675.00	5812.00
675.45	5808.00
675.90	5800.00
676.34	5873.00
676.79	5849.00
677.23	5822.00
677.68	5808.00
678.12	5795.00
678.57	5843.00
679.02	5828.00
679.46	5855.00
679.91	5777.00
680.35	5814.00
680.80	5763.00
681.25	5818.00
681.69	5822.00
682.14	5776.00
682.58	5797.00
683.03	5839.00
683.47	5744.00
683.92	5777.00
684.36	5764.00
684.81	5798.00
685.25	5747.00
685.70	5638.00
686.15	5637.00
686.59	5446.00
687.04	5058.00
687.48	4835.00
687.93	4974.00
688.37	5246.00
688.82	5231.00
689.26	5205.00
689.71	5238.00
690.15	5223.00
690.60	5360.00
691.04	5376.00
691.49	5465.00
691.93	5493.00
692.38	5475.00
692.82	5524.00
693.27	5511.00
693.71	5457.00
694.16	5368.00
694.60	5416.00
695.04	5419.00
695.49	5508.00
695.93	5469.00
696.38	5504.00
696.82	5638.00
697.27	5634.00
697.71	5607.00
698.16	5558.00
698.60	5555.00
699.04	5555.00
699.49	5479.00
699.93	5517.00
700.38	5559.00
700.82	5476.00
701.27	5506.00
701.71	5451.00
702.15	5508.00
702.60	5409.00
703.04	5526.00
703.49	5540.00
703.93	5556.00
704.37	5535.00
704.82	5572.00
705.26	5535.00
705.71	5510.00
706.15	5508.00
706.59	5554.00
707.04	5509.00
707.48	5579.00
707.93	5565.00
708.37	5556.00
708.81	5564.00
709.26	5605.00
709.70	5595.00
710.14	5533.00
710.59	5582.00
711.03	5523.00
711.47	5536.00
711.92	5561.00
712.36	5551.00
712.80	5501.00
713.25	5523.00
713.69	5520.00
714.13	5542.00
714.58	5534.00
715.02	5521.00
715.46	5436.00
715.91	5417.00
716.35	5263.00
716.79	5144.00
717.24	5010.00
717.68	4882.00
718.12	4833.00
718.57	4790.00
719.01	4746.00
719.45	4702.00
719.89	4690.00
720.34	4709.00
720.78	4733.00
721.22	5012.00
721.66	5093.00
722.11	5188.00
722.55	5244.00
722.99	5098.00
723.44	4910.00
723.88	4812.00
724.32	4849.00
724.76	4826.00
725.21	4854.00
725.65	4917.00
726.09	4837.00
726.53	4885.00
726.97	4920.00
727.42	4899.00
727.86	4839.00
728.30	4855.00
728.74	4966.00
729.19	4910.00
729.63	4871.00
730.07	4938.00
730.51	4938.00
730.95	5018.00
731.40	4960.00
731.84	4996.00
732.28	5064.00
732.72	5149.00
733.16	5175.00
733.61	5065.00
734.05	5233.00
734.49	5234.00
734.93	5225.00
735.37	5170.00
735.81	5247.00
736.26	5240.00
736.70	5210.00
737.14	5191.00
737.58	5268.00
738.02	5235.00
738.46	5192.00
738.90	5176.00
739.35	5209.00
739.79	5196.00
740.23	5271.00
740.67	5306.00
741.11	5205.00
741.55	5267.00
741.99	5207.00
742.44	5210.00
742.88	5225.00
743.32	5222.00
743.76	5288.00
744.20	5220.00
744.64	5211.00
745.08	5233.00
745.52	5266.00
745.96	5309.00
746.40	5230.00
746.84	5275.00
747.29	5266.00
747.73	5298.00
748.17	5266.00
748.61	5263.00
749.05	5288.00
749.49	5257.00
749.93	5295.00
750.37	5247.00
750.81	5298.00
751.25	5258.00
751.69	5289.00
752.13	5246.00
752.57	5261.00
753.01	5233.00
753.45	5215.00
753.89	5279.00
754.33	5280.00
754.77	5271.00
755.21	5262.00
755.65	5251.00
756.09	5238.00
756.53	5298.00
756.97	5233.00
757.41	5218.00
757.85	5284.00
758.29	5202.00
758.73	5070.00
759.17	4976.00
759.61	4373.00
760.05	3581.00
760.49	3174.00
760.93	3081.00
761.37	3268.00
761.81	3709.00
762.25	3964.00
762.69	3774.00
763.13	3638.00
763.57	3632.00
764.01	3728.00
764.45	3864.00
764.89	4029.00
765.33	4192.00
765.77	4341.00
766.21	4480.00
766.65	4582.00
767.09	4775.00
767.53	4889.00
767.96	4963.00
768.40	5047.00
768.84	5029.00
769.28	5035.00
769.72	5071.00
770.16	5126.00
770.60	5101.00
771.04	5158.00
771.48	5044.00
771.92	5151.00
772.35	5158.00
772.79	5186.00
773.23	5165.00
773.67	5091.00
774.11	5142.00
774.55	5057.00
774.99	5025.00
775.43	5031.00
775.86	5095.00
776.30	5119.00
776.74	5139.00
777.18	5085.00
777.62	5085.00
778.06	5107.00
778.50	5136.00
778.93	5099.00
779.37	5117.00
779.81	5054.00
780.25	5018.00
780.69	5010.00
781.12	5035.00
781.56	5056.00
782.00	5072.00
782.44	5048.00
782.88	5068.00
783.32	5055.00
783.75	5009.00
784.19	5054.00
784.63	5065.00
785.07	5032.00
785.50	4969.00
785.94	4957.00
786.38	4947.00
786.82	4953.00
787.26	4924.00
787.69	4908.00
788.13	4944.00
788.57	4916.00
789.01	4933.00
789.44	4931.00
789.88	4883.00
790.32	4871.00
790.76	4875.00
791.19	4866.00
791.63	4859.00
792.07	4785.00
792.51	4841.00
792.94	4767.00
793.38	4766.00
793.82	4824.00
794.25	4810.00
794.69	4800.00
795.13	4847.00
795.56	4809.00
796.00	4801.00
796.44	4732.00
796.88	4752.00
797.31	4744.00
797.75	4750.00
798.19	4792.00
798.62	4782.00
799.06	4849.00
799.50	4819.00
799.93	4813.00
800.37	4695.00
800.81	4740.00
801.24	4769.00
801.68	4737.00
802.12	4736.00
802.55	4678.00
802.99	4716.00
803.43	4674.00
803.86	4627.00
804.30	4728.00
804.73	4642.00
805.17	4658.00
805.61	4747.00
806.04	4730.00
806.48	4734.00
806.92	4704.00
807.35	4717.00
807.79	4687.00
808.22	4638.00
808.66	4603.00
809.10	4616.00
809.53	4597.00
809.97	4615.00
810.40	4591.00
810.84	4598.00
811.27	4528.00
811.71	4576.00
812.15	4518.00
812.58	4456.00
813.02	4472.00
813.45	4394.00
813.89	4335.00
814.32	4282.00
814.76	4238.00
815.19	4179.00
815.63	4181.00
816.07	4116.00
816.50	4027.00
816.94	4118.00
817.37	4160.00
817.81	4122.00
818.24	4071.00
818.68	4190.00
819.11	4175.00
819.55	4177.00
819.98	4163.00
820.42	4316.00
820.85	4385.00
821.29	4328.00
821.72	4312.00
822.16	4188.00
822.59	4018.00
823.03	3894.00
823.46	3986.00
823.90	4165.00
824.33	4281.00
824.77	4392.00
825.20	4382.00
825.63	4322.00
826.07	4263.00
826.50	4364.00
826.94	4360.00
827.37	4240.00
827.81	4129.00
828.24	4201.00
828.68	4200.00
829.11	4195.00
829.54	4186.00
829.98	4231.00
830.41	4188.00
830.85	4273.00
831.28	4267.00
831.71	4251.00
832.15	4286.00
832.58	4321.00
833.02	4269.00
833.45	4280.00
833.88	4248.00
834.32	4299.00
834.75	4353.00
835.19	4336.00
835.62	4287.00
836.05	4268.00
836.49	4348.00
836.92	4384.00
837.35	4365.00
837.79	4380.00
838.22	4370.00
838.66	4375.00
839.09	4398.00
839.52	4428.00
839.96	4436.00
840.39	4395.00
840.82	4359.00
841.26	4357.00
841.69	4351.00
842.12	4364.00
842.56	4392.00
842.99	4342.00
843.42	4373.00
843.85	4420.00
844.29	4372.00
844.72	4367.00
845.15	4422.00
845.59	4420.00
846.02	4510.00
846.45	4377.00
846.88	4378.00
847.32	4388.00
847.75	4352.00
848.18	4375.00
848.62	4333.00
849.05	4356.00
849.48	4276.00
849.91	4166.00
850.35	4212.00
850.78	4304.00
851.21	4354.00
851.64	4345.00
852.08	4356.00
852.51	4379.00
852.94	4409.00
853.37	4314.00
853.80	4152.00
854.24	3963.00
854.67	4086.00
855.10	4184.00
855.53	4264.00
855.97	4310.00
856.40	4309.00
856.83	4335.00
857.26	4288.00
857.69	4299.00
858.13	4330.00
858.56	4310.00
858.99	4336.00
859.42	4342.00
859.85	4359.00
860.28	4375.00
860.72	4369.00
861.15	4341.00
861.58	4340.00
862.01	4365.00
862.44	4292.00
862.87	4322.00
863.30	4285.00
863.74	4310.00
864.17	4333.00
864.60	4302.00
865.03	4288.00
865.46	4262.00
865.89	4117.00
866.32	3980.00
866.75	4151.00
867.19	4265.00
867.62	4255.00
868.05	4259.00
868.48	4251.00
868.91	4257.00
869.34	4267.00
869.77	4221.00
870.20	4211.00
870.63	4260.00
871.06	4226.00
871.49	4231.00
871.93	4265.00
872.36	4219.00
872.79	4254.00
873.22	4186.00
873.65	4240.00
874.08	4184.00
874.51	4249.00
874.94	4220.00
875.37	4227.00
875.80	4235.00
876.23	4222.00
876.66	4222.00
877.09	4203.00
877.52	4180.00
877.95	4172.00
878.38	4220.00
878.81	4177.00
879.24	4168.00
879.67	4220.00
880.10	4183.00
880.53	4137.00
880.96	4164.00
881.39	4177.00
881.82	4183.00
882.25	4230.00
882.68	4238.00
883.11	4216.00
883.54	4205.00
883.97	4277.00
884.40	4212.00
884.83	4228.00
885.26	4174.00
885.69	4159.00
886.12	4127.00
886.55	4142.00
886.98	4114.00
887.40	4185.00
887.83	4197.00
888.26	4119.00
888.69	4210.00
889.12	4208.00
889.55	4157.00
889.98	4157.00
890.41	4199.00
890.84	4164.00
891.27	4166.00
891.70	4149.00
892.12	4153.00
892.55	4114.00
892.98	4058.00
893.41	4073.00
893.84	4042.00
894.27	3996.00
894.70	3930.00
895.13	3889.00
895.55	3878.00
895.98	3806.00
896.41	3758.00
896.84	3799.00
897.27	3799.00
897.70	3851.00
898.13	3787.00
898.55	3600.00
898.98	3600.00
899.41	3771.00
899.84	3758.00
900.27	3685.00
900.70	3706.00
901.12	3678.00
901.55	3724.00
901.98	3697.00
902.41	3705.00
902.84	3823.00
903.26	3921.00
903.69	3952.00
904.12	3941.00
904.55	3930.00
904.97	3894.00
905.40	3920.00
905.83	3787.00
906.26	3722.00
906.69	3649.00
907.11	3699.00
907.54	3673.00
907.97	3677.00
908.40	3653.00
908.82	3659.00
909.25	3665.00
909.68	3648.00
910.10	3651.00
910.53	3672.00
910.96	3754.00
911.39	3691.00
911.81	3699.00
912.24	3708.00
912.67	3584.00
913.09	3521.00
913.52	3591.00
913.95	3716.00
914.38	3707.00
914.80	3576.00
915.23	3507.00
915.66	3643.00
916.08	3727.00
916.51	3702.00
916.94	3547.00
917.36	3533.00
917.79	3632.00
918.22	3691.00
918.64	3736.00
919.07	3677.00
919.50	3751.00
919.92	3792.00
920.35	3765.00
920.78	3699.00
921.20	3661.00
921.63	3686.00
922.05	3691.00
922.48	3673.00
922.91	3653.00
923.33	3636.00
923.76	3650.00
924.18	3650.00
924.61	3632.00
925.04	3601.00
925.46	3598.00
925.89	3631.00
926.31	3653.00
926.74	3595.00
927.17	3545.00
927.59	3421.00
928.02	3383.00
928.44	3337.00
928.87	3286.00
929.29	3271.00
929.72	3217.00
930.15	3165.00
930.57	3120.00
931.00	3067.00
931.42	3015.00
931.85	2954.00
932.27	2981.00
932.70	2954.00
933.12	2864.00
933.55	2838.00
933.97	2845.00
934.40	2964.00
934.82	2931.00
935.25	2862.00
935.67	2903.00
936.10	2873.00
936.52	2826.00
936.95	2846.00
937.37	2828.00
937.80	2874.00
938.22	2935.00
938.65	3015.00
939.07	3029.00
939.50	2972.00
939.92	2977.00
940.35	2921.00
940.77	2912.00
941.19	2919.00
941.62	2942.00
942.04	2890.00
942.47	2857.00
942.89	2919.00
943.32	2849.00
943.74	2820.00
944.16	2874.00
944.59	2913.00
945.01	2873.00
945.44	2858.00
945.86	2875.00
946.29	2877.00
946.71	2924.00
947.13	2894.00
947.56	2869.00
947.98	2923.00
948.40	2973.00
948.83	2878.00
949.25	2853.00
949.68	2908.00
950.10	3004.00
950.52	3033.00
950.95	2996.00
951.37	2879.00
951.79	2893.00
952.22	2919.00
952.64	2976.00
953.06	3012.00
953.49	3003.00
953.91	2956.00
954.33	2976.00
954.76	2951.00
955.18	2984.00
955.60	2990.00
956.03	2980.00
956.45	3048.00
956.87	3114.00
957.30	3043.00
957.72	3053.00
958.14	3005.00
958.56	2985.00
958.99	3041.00
959.41	3087.00
959.83	3077.00
960.26	3119.00
960.68	3153.00
961.10	3116.00
961.52	3083.00
961.95	3136.00
962.37	3168.00
962.79	3149.00
963.21	3139.00
963.64	3148.00
964.06	3183.00
964.48	3189.00
964.90	3226.00
965.32	3155.00
965.75	3142.00
966.17	3197.00
966.59	3294.00
967.01	3325.00
967.44	3280.00
967.86	3307.00
968.28	3350.00
968.70	3361.00
969.12	3317.00
969.54	3348.00
969.97	3393.00
970.39	3340.00
970.81	3363.00
971.23	3356.00
971.65	3302.00
972.07	3312.00
972.50	3287.00
972.92	3255.00
973.34	3266.00
973.76	3269.00
974.18	3279.00
974.60	3233.00
975.02	3255.00
975.45	3254.00
975.87	3262.00
976.29	3318.00
976.71	3328.00
977.13	3286.00
977.55	3297.00
977.97	3300.00
978.39	3307.00
978.81	3315.00
979.24	3317.00
979.66	3334.00
980.08	3350.00
980.50	3376.00
980.92	3365.00
981.34	3321.00
981.76	3357.00
982.18	3328.00
982.60	3371.00
983.02	3360.00
983.44	3373.00
983.86	3340.00
984.28	3323.00
984.70	3365.00
985.12	3357.00
985.54	3339.00
985.96	3330.00
986.38	3344.00
986.80	3312.00
987.23	3332.00
987.65	3344.00
988.07	3325.00
988.49	3364.00
988.91	3362.00
989.33	3345.00
989.74	3329.00
990.16	3344.00
990.58	3328.00
991.00	3345.00
991.42	3339.00
991.84	3331.00
992.26	3328.00
992.68	3339.00
993.10	3333.00
993.52	3338.00
993.94	3300.00
994.36	3307.00
994.78	3312.00
995.20	3290.00
995.62	3345.00
996.04	3316.00
996.46	3290.00
996.88	3317.00
997.30	3309.00
997.71	3337.00
998.13	3337.00
998.55	3349.00
998.97	3323.00
999.39	3336.00
999.81	3330.00
1000.23	3329.00
1000.65	3337.00
1001.07	3325.00
1001.49	3334.00
1001.90	3340.00
1002.32	3308.00
1002.74	3306.00
1003.16	3303.00
1003.58	3290.00
1004.00	3304.00
1004.42	3285.00
1004.83	3312.00
1005.25	3302.00
1005.67	3294.00
1006.09	3301.00
1006.51	3243.00
1006.92	3308.00
1007.34	3273.00
1007.76	3255.00
1008.18	3304.00
1008.60	3273.00
1009.02	3283.00
1009.43	3277.00
1009.85	3264.00
1010.27	3253.00
1010.69	3257.00
1011.10	3269.00
1011.52	3250.00
1011.94	3227.00
1012.36	3245.00
1012.78	3265.00
1013.19	3250.00
1013.61	3230.00
1014.03	3199.00
1014.45	3223.00
1014.86	3204.00
1015.28	3212.00
1015.70	3217.00
1016.12	3194.00
1016.53	3177.00
1016.95	3208.00
1017.37	3185.00
1017.78	3173.00
1018.20	3178.00
1018.62	3150.00
1019.03	3155.00
1019.45	3160.00
1019.87	3150.00
1020.29	3163.00
1020.70	3134.00
1021.12	3146.00
1021.54	3130.00
1021.95	3127.00
1022.37	3126.00
1022.79	3122.00
1023.20	3102.00
1023.62	3111.00
1024.04	3112.00
1024.45	3117.00
1024.87	3138.00
1025.28	3089.00
1025.70	3103.00
1026.12	3101.00
1026.53	3074.00
1026.95	3096.00
1027.37	3093.00
1027.78	3075.00
1028.20	3088.00
1028.61	3048.00
1029.03	3040.00
1029.45	3043.00
1029.86	3029.00
1030.28	3050.00
1030.69	3056.00
1031.11	3025.00
1031.53	3033.00
1031.94	3052.00
1032.36	3018.00
1032.77	2995.00
1033.19	3023.00
1033.60	3003.00
1034.02	3009.00
1034.43	2998.00
1034.85	3002.00
1035.27	2983.00
1035.68	2984.00
1036.10	2979.00
1036.51	2987.00
1036.93	2966.00
1037.34	2969.00
1037.76	2986.00
1038.17	2974.00
1038.59	2962.00
1039.00	2963.00
1039.42	2987.00
1039.83	2952.00
1040.25	2932.00
1040.66	2958.00
1041.08	2934.00
1041.49	2924.00
1041.91	2934.00
1042.32	2933.00
1042.73	2916.00
1043.15	2911.00
1043.56	2926.00
1043.98	2916.00
1044.39	2899.00
1044.81	2914.00
1045.22	2913.00
1045.64	2892.00
1046.05	2890.00
1046.46	2896.00
1046.88	2903.00
1047.29	2893.00
1047.71	2875.00
1048.12	2888.00
1048.53	2878.00
1048.95	2854.00
1049.36	2860.00
1049.78	2859.00
1050.19	2848.00
1050.60	2850.00
1051.02	2851.00
1051.43	2833.00
1051.85	2839.00
1052.26	2860.00
1052.67	2856.00
1053.09	2845.00
1053.50	2822.00
1053.91	2833.00
1054.33	2850.00
1054.74	2807.00
1055.15	2828.00
1055.57	2827.00
1055.98	2793.00
1056.39	2799.00
1056.81	2810.00
1057.22	2812.00
1057.63	2801.00
1058.05	2792.00
1058.46	2785.00
1058.87	2793.00
1059.28	2782.00
1059.70	2791.00
1060.11	2781.00
1060.52	2760.00
1060.94	2787.00
1061.35	2781.00
1061.76	2765.00
1062.17	2777.00
1062.59	2763.00
1063.00	2763.00
1063.41	2759.00
1063.82	2756.00
1064.24	2763.00
1064.65	2761.00
1065.06	2761.00
1065.47	2742.00
1065.89	2752.00
1066.30	2741.00
1066.71	2744.00
1067.12	2760.00
1067.53	2734.00
1067.95	2745.00
1068.36	2756.00
1068.77	2743.00
1069.18	2738.00
1069.59	2739.00
1070.00	2731.00
1070.42	2737.00
1070.83	2728.00
1071.24	2727.00
1071.65	2740.00
1072.06	2720.00
1072.47	2719.00
1072.89	2727.00
1073.30	2715.00
1073.71	2729.00
1074.12	2720.00
1074.53	2707.00
1074.94	2716.00
1075.35	2715.00
1075.77	2693.00
1076.18	2705.00
1076.59	2699.00
1077.00	2699.00
1077.41	2682.00
1077.82	2693.00
1078.23	2699.00
1078.64	2698.00
1079.05	2686.00
1079.46	2697.00
1079.87	2702.00
1080.29	2688.00
1080.70	2692.00
1081.11	2694.00
1081.52	2678.00
1081.93	2683.00
1082.34	2673.00
1082.75	2684.00
1083.16	2667.00
1083.57	2679.00
1083.98	2679.00
1084.39	2677.00
1084.80	2660.00
1085.21	2678.00
1085.62	2675.00
1086.03	2698.00
1086.44	2664.00
1086.85	2679.00
1087.26	2652.00
1087.67	2665.00
1088.08	2671.00
1088.49	2665.00
1088.90	2654.00
1089.31	2662.00
1089.72	2655.00
1090.13	2661.00
1090.54	2659.00
1090.95	2659.00
1091.36	2650.00
1091.77	2649.00
1092.18	2644.00
1092.59	2648.00
1093.00	2655.00
1093.40	2638.00
1093.81	2649.00
1094.22	2656.00
1094.63	2648.00
1095.04	2645.00
1095.45	2633.00
1095.86	2647.00
1096.27	2640.00
1096.68	2638.00
1097.09	2636.00
1097.50	2637.00
1097.90	2638.00
1098.31	2635.00
1098.72	2637.00
1099.13	2628.00
1099.54	2633.00
1099.95	2625.00
1100.36	2624.00
1100.76	2629.00
1101.17	2639.00
1101.58	2621.00
1101.99	2619.00
1102.40	2623.00
1102.81	2621.00
1103.22	2615.00
1103.62	2620.00
1104.03	2626.00
1104.44	2606.00
1104.85	2618.00
1105.26	2622.00
1105.66	2611.00
1106.07	2614.00
1106.48	2621.00
1106.89	2612.00
1107.30	2609.00
1107.70	2611.00
1108.11	2611.00
1108.52	2608.00
1108.93	2610.00
1109.33	2605.00
1109.74	2613.00
1110.15	2603.00
1110.56	2603.00
1110.96	2614.00
1111.37	2606.00
1111.78	2610.00
1112.19	2613.00
1112.59	2607.00
1113.00	2607.00
1113.41	2605.00
1113.81	2600.00
1114.22	2598.00
1114.63	2573.00
1115.03	2570.00
1115.44	2578.00
1115.85	2575.00
>>>>>End Processed Spectral Data<<<<<
