SpectraSuite Data File
++++++++++++++++++++++++++++++++++++
Date: Thu Aug 05 09:52:33 EEST 2021
User: CanSEE
Dark Spectrum Present: No
Reference Spectrum Present: No
Number of Sampled Component Spectra: 1
Spectrometers: MAYP112785
Integration Time (usec): 10000 (MAYP112785)
Spectra Averaged: 1 (MAYP112785)
Boxcar Smoothing: 0 (MAYP112785)
Correct for Electrical Dark: No (MAYP112785)
Strobe/Lamp Enabled: No (MAYP112785)
Correct for Detector Non-linearity: No (MAYP112785)
Correct for Stray Light: No (MAYP112785)
Number of Pixels in Processed Spectrum: 2068
>>>>>Begin Processed Spectral Data<<<<<
198.35	3437.00
198.82	2472.00
199.30	2577.00
199.77	2551.00
200.24	2582.00
200.71	2582.00
201.18	2586.00
201.65	2587.00
202.13	2583.00
202.60	2587.00
203.07	2583.00
203.54	2583.00
204.01	2589.00
204.48	2583.00
204.96	2575.00
205.43	2580.00
205.90	2577.00
206.37	2580.00
206.84	2581.00
207.31	2571.00
207.78	2578.00
208.26	2579.00
208.73	2580.00
209.20	2584.00
209.67	2587.00
210.14	2589.00
210.61	2579.00
211.08	2580.00
211.56	2582.00
212.03	2578.00
212.50	2581.00
212.97	2579.00
213.44	2570.00
213.91	2586.00
214.38	2576.00
214.85	2580.00
215.33	2581.00
215.80	2582.00
216.27	2576.00
216.74	2580.00
217.21	2582.00
217.68	2574.00
218.15	2578.00
218.62	2587.00
219.09	2573.00
219.57	2582.00
220.04	2580.00
220.51	2578.00
220.98	2580.00
221.45	2575.00
221.92	2584.00
222.39	2578.00
222.86	2584.00
223.33	2580.00
223.80	2581.00
224.27	2582.00
224.74	2579.00
225.22	2578.00
225.69	2583.00
226.16	2592.00
226.63	2580.00
227.10	2584.00
227.57	2582.00
228.04	2578.00
228.51	2582.00
228.98	2579.00
229.45	2590.00
229.92	2587.00
230.39	2583.00
230.86	2580.00
231.33	2583.00
231.80	2587.00
232.27	2579.00
232.75	2582.00
233.22	2580.00
233.69	2584.00
234.16	2583.00
234.63	2584.00
235.10	2579.00
235.57	2581.00
236.04	2582.00
236.51	2583.00
236.98	2580.00
237.45	2585.00
237.92	2580.00
238.39	2587.00
238.86	2582.00
239.33	2635.00
239.80	2582.00
240.27	2581.00
240.74	2585.00
241.21	2583.00
241.68	2580.00
242.15	2584.00
242.62	2579.00
243.09	2584.00
243.56	2584.00
244.03	2580.00
244.50	2581.00
244.97	2588.00
245.44	2597.00
245.91	2583.00
246.38	2590.00
246.85	2588.00
247.32	2582.00
247.79	2582.00
248.26	2585.00
248.73	2579.00
249.20	2587.00
249.67	2587.00
250.14	2581.00
250.61	2588.00
251.08	2581.00
251.55	2574.00
252.02	2578.00
252.49	2583.00
252.96	2582.00
253.43	2579.00
253.90	2580.00
254.37	2581.00
254.84	2585.00
255.31	2579.00
255.77	2582.00
256.24	2582.00
256.71	2582.00
257.18	2583.00
257.65	2579.00
258.12	2585.00
258.59	2574.00
259.06	2587.00
259.53	2588.00
260.00	2580.00
260.47	2589.00
260.94	2585.00
261.41	2583.00
261.88	2589.00
262.35	2578.00
262.81	2584.00
263.28	2584.00
263.75	2586.00
264.22	2585.00
264.69	2583.00
265.16	2587.00
265.63	2590.00
266.10	2581.00
266.57	2579.00
267.04	2582.00
267.51	2582.00
267.97	2582.00
268.44	2588.00
268.91	2579.00
269.38	2583.00
269.85	2588.00
270.32	2584.00
270.79	2587.00
271.26	2585.00
271.73	2579.00
272.19	2586.00
272.66	2576.00
273.13	2584.00
273.60	2578.00
274.07	2578.00
274.54	2585.00
275.01	2583.00
275.48	2584.00
275.94	2585.00
276.41	2582.00
276.88	2582.00
277.35	2582.00
277.82	2582.00
278.29	2586.00
278.76	2585.00
279.22	2584.00
279.69	2581.00
280.16	2580.00
280.63	2584.00
281.10	2580.00
281.57	2587.00
282.04	2590.00
282.50	2584.00
282.97	2578.00
283.44	2587.00
283.91	2584.00
284.38	2587.00
284.85	2582.00
285.31	2585.00
285.78	2579.00
286.25	2582.00
286.72	2583.00
287.19	2579.00
287.65	2583.00
288.12	2582.00
288.59	2580.00
289.06	2584.00
289.53	2576.00
289.99	2588.00
290.46	2580.00
290.93	2585.00
291.40	2581.00
291.87	2581.00
292.33	2579.00
292.80	2581.00
293.27	2578.00
293.74	2588.00
294.21	2592.00
294.67	2590.00
295.14	2582.00
295.61	2583.00
296.08	2578.00
296.54	2584.00
297.01	2585.00
297.48	2586.00
297.95	2586.00
298.42	2586.00
298.88	2582.00
299.35	2587.00
299.82	2580.00
300.29	2580.00
300.75	2583.00
301.22	2580.00
301.69	2583.00
302.16	2582.00
302.62	2576.00
303.09	2586.00
303.56	2580.00
304.03	2588.00
304.49	2587.00
304.96	2588.00
305.43	2589.00
305.90	2584.00
306.36	2585.00
306.83	2592.00
307.30	2586.00
307.76	2591.00
308.23	2597.00
308.70	2593.00
309.17	2593.00
309.63	2592.00
310.10	2588.00
310.57	2604.00
311.03	2613.00
311.50	2606.00
311.97	2613.00
312.44	2614.00
312.90	2614.00
313.37	2627.00
313.84	2624.00
314.30	2626.00
314.77	2631.00
315.24	2631.00
315.70	2621.00
316.17	2617.00
316.64	2643.00
317.10	2647.00
317.57	2661.00
318.04	2659.00
318.50	2656.00
318.97	2640.00
319.44	2663.00
319.90	2665.00
320.37	2670.00
320.84	2679.00
321.30	2676.00
321.77	2665.00
322.24	2666.00
322.70	2666.00
323.17	2695.00
323.64	2680.00
324.10	2699.00
324.57	2716.00
325.04	2703.00
325.50	2717.00
325.97	2725.00
326.44	2737.00
326.90	2757.00
327.37	2748.00
327.84	2749.00
328.30	2742.00
328.77	2758.00
329.23	2767.00
329.70	2818.00
330.17	2782.00
330.63	2782.00
331.10	2768.00
331.56	2782.00
332.03	2766.00
332.50	2782.00
332.96	2776.00
333.43	2775.00
333.90	2776.00
334.36	2764.00
334.83	2779.00
335.29	2788.00
335.76	2784.00
336.22	2764.00
336.69	2761.00
337.16	2763.00
337.62	2769.00
338.09	2775.00
338.55	2796.00
339.02	2797.00
339.49	2797.00
339.95	2787.00
340.42	2819.00
340.88	2824.00
341.35	2823.00
341.81	2816.00
342.28	2828.00
342.75	2818.00
343.21	2824.00
343.68	2816.00
344.14	2818.00
344.61	2787.00
345.07	2809.00
345.54	2827.00
346.00	2848.00
346.47	2824.00
346.93	2836.00
347.40	2843.00
347.87	2849.00
348.33	2833.00
348.80	2869.00
349.26	2845.00
349.73	2836.00
350.19	2866.00
350.66	2891.00
351.12	2873.00
351.59	2871.00
352.05	2867.00
352.52	2887.00
352.98	2864.00
353.45	2892.00
353.91	2914.00
354.38	2900.00
354.84	2909.00
355.31	2902.00
355.77	2911.00
356.24	2881.00
356.70	2856.00
357.17	2837.00
357.63	2812.00
358.10	2826.00
358.56	2827.00
359.03	2835.00
359.49	2891.00
359.96	2923.00
360.42	2908.00
360.89	2883.00
361.35	2885.00
361.82	2882.00
362.28	2902.00
362.75	2914.00
363.21	2889.00
363.67	2925.00
364.14	2942.00
364.60	2946.00
365.07	2930.00
365.53	2979.00
366.00	2990.00
366.46	3010.00
366.93	2965.00
367.39	3005.00
367.86	2990.00
368.32	2968.00
368.78	2967.00
369.25	2986.00
369.71	2991.00
370.18	3024.00
370.64	2996.00
371.11	2977.00
371.57	2975.00
372.03	2991.00
372.50	2957.00
372.96	2951.00
373.43	2945.00
373.89	2945.00
374.35	2950.00
374.82	2953.00
375.28	2929.00
375.75	3027.00
376.21	3022.00
376.67	3019.00
377.14	3034.00
377.60	3071.00
378.07	3122.00
378.53	3102.00
378.99	3081.00
379.46	3046.00
379.92	3027.00
380.39	3018.00
380.85	3072.00
381.31	3041.00
381.78	2992.00
382.24	2954.00
382.70	2922.00
383.17	2935.00
383.63	2910.00
384.09	2959.00
384.56	2990.00
385.02	3043.00
385.48	3043.00
385.95	3048.00
386.41	3038.00
386.88	3036.00
387.34	3070.00
387.80	3059.00
388.27	3079.00
388.73	3089.00
389.19	3101.00
389.66	3151.00
390.12	3149.00
390.58	3162.00
391.05	3187.00
391.51	3205.00
391.97	3167.00
392.43	3116.00
392.90	3051.00
393.36	2963.00
393.82	2964.00
394.29	3032.00
394.75	3120.00
395.21	3186.00
395.68	3190.00
396.14	3149.00
396.60	3110.00
397.07	3060.00
397.53	3112.00
397.99	3288.00
398.45	3386.00
398.92	3430.00
399.38	3457.00
399.84	3517.00
400.31	3514.00
400.77	3543.00
401.23	3570.00
401.69	3563.00
402.16	3560.00
402.62	3582.00
403.08	3578.00
403.54	3573.00
404.01	3593.00
404.47	3536.00
404.93	3541.00
405.39	3539.00
405.86	3565.00
406.32	3545.00
406.78	3555.00
407.24	3583.00
407.71	3580.00
408.17	3586.00
408.63	3650.00
409.09	3651.00
409.56	3662.00
410.02	3621.00
410.48	3599.00
410.94	3647.00
411.40	3667.00
411.87	3736.00
412.33	3705.00
412.79	3716.00
413.25	3704.00
413.71	3716.00
414.18	3783.00
414.64	3739.00
415.10	3750.00
415.56	3748.00
416.02	3749.00
416.49	3766.00
416.95	3761.00
417.41	3776.00
417.87	3743.00
418.33	3719.00
418.80	3724.00
419.26	3715.00
419.72	3787.00
420.18	3758.00
420.64	3767.00
421.10	3793.00
421.57	3836.00
422.03	3824.00
422.49	3780.00
422.95	3741.00
423.41	3769.00
423.87	3836.00
424.34	3772.00
424.80	3863.00
425.26	3777.00
425.72	3803.00
426.18	3794.00
426.64	3782.00
427.10	3800.00
427.57	3738.00
428.03	3774.00
428.49	3733.00
428.95	3724.00
429.41	3624.00
429.87	3653.00
430.33	3631.00
430.79	3616.00
431.26	3657.00
431.72	3816.00
432.18	3906.00
432.64	3899.00
433.10	3893.00
433.56	3884.00
434.02	3882.00
434.48	3845.00
434.94	3932.00
435.40	4016.00
435.87	3992.00
436.33	3966.00
436.79	4009.00
437.25	3974.00
437.71	3981.00
438.17	3968.00
438.63	3960.00
439.09	3981.00
439.55	4017.00
440.01	4052.00
440.47	4076.00
440.93	4110.00
441.39	4131.00
441.85	4205.00
442.32	4198.00
442.78	4245.00
443.24	4209.00
443.70	4202.00
444.16	4234.00
444.62	4193.00
445.08	4240.00
445.54	4232.00
446.00	4197.00
446.46	4202.00
446.92	4257.00
447.38	4297.00
447.84	4322.00
448.30	4270.00
448.76	4322.00
449.22	4312.00
449.68	4394.00
450.14	4457.00
450.60	4431.00
451.06	4468.00
451.52	4424.00
451.98	4405.00
452.44	4383.00
452.90	4362.00
453.36	4390.00
453.82	4356.00
454.28	4421.00
454.74	4419.00
455.20	4429.00
455.66	4477.00
456.12	4485.00
456.58	4512.00
457.04	4454.00
457.50	4486.00
457.96	4488.00
458.42	4477.00
458.88	4471.00
459.34	4500.00
459.80	4520.00
460.26	4540.00
460.72	4558.00
461.18	4531.00
461.64	4589.00
462.10	4595.00
462.55	4603.00
463.01	4543.00
463.47	4582.00
463.93	4531.00
464.39	4630.00
464.85	4517.00
465.31	4501.00
465.77	4582.00
466.23	4596.00
466.69	4545.00
467.15	4539.00
467.61	4513.00
468.07	4562.00
468.52	4545.00
468.98	4601.00
469.44	4609.00
469.90	4590.00
470.36	4572.00
470.82	4575.00
471.28	4614.00
471.74	4650.00
472.20	4675.00
472.66	4687.00
473.11	4630.00
473.57	4674.00
474.03	4684.00
474.49	4662.00
474.95	4692.00
475.41	4679.00
475.87	4675.00
476.33	4750.00
476.78	4656.00
477.24	4762.00
477.70	4692.00
478.16	4747.00
478.62	4781.00
479.08	4741.00
479.54	4762.00
479.99	4768.00
480.45	4842.00
480.91	4753.00
481.37	4779.00
481.83	4847.00
482.29	4801.00
482.74	4862.00
483.20	4783.00
483.66	4780.00
484.12	4757.00
484.58	4682.00
485.04	4618.00
485.49	4582.00
485.95	4511.00
486.41	4509.00
486.87	4519.00
487.33	4615.00
487.78	4645.00
488.24	4722.00
488.70	4735.00
489.16	4764.00
489.62	4745.00
490.07	4839.00
490.53	4785.00
490.99	4763.00
491.45	4730.00
491.90	4771.00
492.36	4789.00
492.82	4695.00
493.28	4773.00
493.74	4851.00
494.19	4824.00
494.65	4886.00
495.11	4880.00
495.57	4860.00
496.02	4893.00
496.48	4810.00
496.94	4904.00
497.40	4818.00
497.85	4862.00
498.31	4837.00
498.77	4806.00
499.23	4806.00
499.68	4834.00
500.14	4829.00
500.60	4779.00
501.06	4725.00
501.51	4779.00
501.97	4749.00
502.43	4762.00
502.88	4810.00
503.34	4759.00
503.80	4823.00
504.26	4789.00
504.71	4819.00
505.17	4930.00
505.63	4885.00
506.08	4890.00
506.54	4860.00
507.00	4935.00
507.45	4862.00
507.91	4864.00
508.37	4850.00
508.82	4879.00
509.28	4932.00
509.74	4912.00
510.19	4896.00
510.65	4985.00
511.11	4952.00
511.56	4923.00
512.02	4970.00
512.48	4927.00
512.93	4881.00
513.39	4860.00
513.85	4900.00
514.30	4862.00
514.76	4929.00
515.22	4884.00
515.67	4844.00
516.13	4807.00
516.59	4723.00
517.04	4710.00
517.50	4658.00
517.95	4715.00
518.41	4793.00
518.87	4802.00
519.32	4903.00
519.78	4882.00
520.24	4914.00
520.69	5021.00
521.15	4983.00
521.60	4972.00
522.06	4949.00
522.52	4968.00
522.97	4935.00
523.43	5012.00
523.88	5025.00
524.34	5036.00
524.80	5119.00
525.25	5049.00
525.71	4972.00
526.16	4934.00
526.62	4908.00
527.07	4880.00
527.53	4916.00
527.99	5018.00
528.44	5079.00
528.90	5083.00
529.35	5093.00
529.81	5088.00
530.26	5091.00
530.72	5127.00
531.17	5114.00
531.63	5120.00
532.09	5073.00
532.54	5067.00
533.00	5049.00
533.45	5038.00
533.91	5038.00
534.36	5068.00
534.82	5146.00
535.27	5081.00
535.73	5179.00
536.18	5141.00
536.64	5094.00
537.09	5108.00
537.55	5084.00
538.00	5101.00
538.46	5127.00
538.91	5135.00
539.37	5083.00
539.82	5035.00
540.28	5040.00
540.73	5060.00
541.19	5069.00
541.64	5099.00
542.10	5108.00
542.55	5131.00
543.01	5094.00
543.46	5140.00
543.92	5110.00
544.37	5131.00
544.83	5127.00
545.28	5170.00
545.74	5158.00
546.19	5167.00
546.64	5162.00
547.10	5155.00
547.55	5118.00
548.01	5139.00
548.46	5171.00
548.92	5177.00
549.37	5233.00
549.83	5143.00
550.28	5203.00
550.73	5150.00
551.19	5187.00
551.64	5237.00
552.10	5168.00
552.55	5167.00
553.00	5228.00
553.46	5209.00
553.91	5146.00
554.37	5260.00
554.82	5191.00
555.28	5236.00
555.73	5184.00
556.18	5203.00
556.64	5164.00
557.09	5129.00
557.54	5161.00
558.00	5140.00
558.45	5097.00
558.91	5136.00
559.36	5074.00
559.81	5133.00
560.27	5154.00
560.72	5163.00
561.17	5170.00
561.63	5190.00
562.08	5151.00
562.54	5169.00
562.99	5163.00
563.44	5164.00
563.90	5182.00
564.35	5179.00
564.80	5195.00
565.26	5112.00
565.71	5161.00
566.16	5083.00
566.62	5174.00
567.07	5144.00
567.52	5278.00
567.98	5168.00
568.43	5207.00
568.88	5205.00
569.34	5136.00
569.79	5085.00
570.24	5144.00
570.69	5106.00
571.15	5117.00
571.60	5117.00
572.05	5167.00
572.51	5164.00
572.96	5232.00
573.41	5167.00
573.86	5187.00
574.32	5148.00
574.77	5186.00
575.22	5162.00
575.68	5139.00
576.13	5142.00
576.58	5189.00
577.03	5162.00
577.49	5155.00
577.94	5175.00
578.39	5127.00
578.84	5145.00
579.30	5207.00
579.75	5166.00
580.20	5145.00
580.65	5190.00
581.11	5275.00
581.56	5244.00
582.01	5328.00
582.46	5277.00
582.92	5290.00
583.37	5306.00
583.82	5273.00
584.27	5283.00
584.72	5286.00
585.18	5291.00
585.63	5202.00
586.08	5228.00
586.53	5245.00
586.98	5270.00
587.44	5298.00
587.89	5214.00
588.34	5111.00
588.79	5062.00
589.24	4949.00
589.70	4952.00
590.15	5037.00
590.60	5120.00
591.05	5169.00
591.50	5133.00
591.96	5213.00
592.41	5139.00
592.86	5199.00
593.31	5189.00
593.76	5188.00
594.21	5216.00
594.66	5157.00
595.12	5132.00
595.57	5215.00
596.02	5226.00
596.47	5240.00
596.92	5196.00
597.37	5194.00
597.82	5177.00
598.28	5213.00
598.73	5220.00
599.18	5229.00
599.63	5181.00
600.08	5182.00
600.53	5173.00
600.98	5277.00
601.43	5219.00
601.88	5201.00
602.34	5194.00
602.79	5242.00
603.24	5237.00
603.69	5203.00
604.14	5231.00
604.59	5263.00
605.04	5272.00
605.49	5241.00
605.94	5254.00
606.39	5292.00
606.84	5257.00
607.30	5292.00
607.75	5312.00
608.20	5270.00
608.65	5248.00
609.10	5248.00
609.55	5263.00
610.00	5240.00
610.45	5273.00
610.90	5207.00
611.35	5174.00
611.80	5233.00
612.25	5281.00
612.70	5242.00
613.15	5227.00
613.60	5171.00
614.05	5198.00
614.50	5236.00
614.95	5218.00
615.40	5232.00
615.85	5220.00
616.30	5154.00
616.75	5151.00
617.20	5154.00
617.65	5209.00
618.10	5277.00
618.55	5300.00
619.00	5249.00
619.45	5279.00
619.90	5258.00
620.35	5313.00
620.80	5278.00
621.25	5281.00
621.70	5234.00
622.15	5209.00
622.60	5272.00
623.05	5206.00
623.50	5207.00
623.95	5227.00
624.40	5194.00
624.85	5170.00
625.30	5159.00
625.75	5155.00
626.20	5203.00
626.65	5218.00
627.10	5260.00
627.55	5146.00
627.99	5071.00
628.44	5124.00
628.89	5186.00
629.34	5167.00
629.79	5163.00
630.24	5157.00
630.69	5201.00
631.14	5192.00
631.59	5170.00
632.04	5164.00
632.49	5237.00
632.94	5232.00
633.38	5243.00
633.83	5194.00
634.28	5243.00
634.73	5249.00
635.18	5318.00
635.63	5290.00
636.08	5273.00
636.53	5288.00
636.97	5333.00
637.42	5312.00
637.87	5339.00
638.32	5330.00
638.77	5343.00
639.22	5303.00
639.67	5341.00
640.11	5338.00
640.56	5311.00
641.01	5324.00
641.46	5276.00
641.91	5327.00
642.36	5285.00
642.81	5288.00
643.25	5293.00
643.70	5354.00
644.15	5308.00
644.60	5271.00
645.05	5271.00
645.49	5284.00
645.94	5266.00
646.39	5254.00
646.84	5262.00
647.29	5221.00
647.73	5198.00
648.18	5163.00
648.63	5232.00
649.08	5188.00
649.53	5156.00
649.97	5179.00
650.42	5260.00
650.87	5281.00
651.32	5306.00
651.77	5229.00
652.21	5258.00
652.66	5223.00
653.11	5232.00
653.56	5271.00
654.00	5254.00
654.45	5212.00
654.90	5173.00
655.35	5118.00
655.79	4997.00
656.24	4928.00
656.69	4919.00
657.14	4927.00
657.58	5088.00
658.03	5209.00
658.48	5242.00
658.92	5263.00
659.37	5246.00
659.82	5279.00
660.27	5248.00
660.71	5296.00
661.16	5351.00
661.61	5300.00
662.05	5305.00
662.50	5320.00
662.95	5293.00
663.39	5267.00
663.84	5247.00
664.29	5274.00
664.74	5288.00
665.18	5320.00
665.63	5309.00
666.08	5333.00
666.52	5283.00
666.97	5307.00
667.42	5275.00
667.86	5287.00
668.31	5273.00
668.76	5286.00
669.20	5308.00
669.65	5291.00
670.09	5259.00
670.54	5245.00
670.99	5272.00
671.43	5305.00
671.88	5242.00
672.33	5324.00
672.77	5289.00
673.22	5318.00
673.66	5311.00
674.11	5271.00
674.56	5264.00
675.00	5248.00
675.45	5250.00
675.90	5266.00
676.34	5395.00
676.79	5256.00
677.23	5233.00
677.68	5225.00
678.12	5248.00
678.57	5249.00
679.02	5243.00
679.46	5227.00
679.91	5224.00
680.35	5280.00
680.80	5189.00
681.25	5249.00
681.69	5257.00
682.14	5252.00
682.58	5225.00
683.03	5212.00
683.47	5243.00
683.92	5227.00
684.36	5229.00
684.81	5219.00
685.25	5193.00
685.70	5184.00
686.15	5098.00
686.59	4867.00
687.04	4523.00
687.48	4418.00
687.93	4499.00
688.37	4711.00
688.82	4751.00
689.26	4691.00
689.71	4702.00
690.15	4778.00
690.60	4786.00
691.04	4887.00
691.49	4914.00
691.93	4932.00
692.38	4975.00
692.82	4984.00
693.27	4921.00
693.71	4926.00
694.16	4883.00
694.60	4869.00
695.04	4951.00
695.49	4987.00
695.93	4976.00
696.38	5026.00
696.82	5081.00
697.27	5121.00
697.71	5093.00
698.16	5061.00
698.60	5026.00
699.04	4992.00
699.49	4956.00
699.93	5020.00
700.38	4964.00
700.82	4893.00
701.27	4957.00
701.71	4938.00
702.15	4953.00
702.60	4894.00
703.04	4946.00
703.49	5010.00
703.93	4979.00
704.37	4989.00
704.82	5035.00
705.26	5000.00
705.71	4957.00
706.15	4977.00
706.59	5045.00
707.04	4970.00
707.48	5006.00
707.93	4957.00
708.37	5033.00
708.81	5050.00
709.26	5026.00
709.70	5049.00
710.14	5070.00
710.59	5052.00
711.03	5045.00
711.47	5071.00
711.92	4995.00
712.36	4983.00
712.80	4991.00
713.25	4992.00
713.69	5013.00
714.13	4989.00
714.58	5032.00
715.02	4934.00
715.46	4962.00
715.91	4919.00
716.35	4846.00
716.79	4673.00
717.24	4503.00
717.68	4447.00
718.12	4408.00
718.57	4327.00
719.01	4288.00
719.45	4271.00
719.89	4270.00
720.34	4265.00
720.78	4371.00
721.22	4531.00
721.66	4621.00
722.11	4771.00
722.55	4707.00
722.99	4615.00
723.44	4511.00
723.88	4426.00
724.32	4395.00
724.76	4436.00
725.21	4407.00
725.65	4446.00
726.09	4452.00
726.53	4447.00
726.97	4550.00
727.42	4509.00
727.86	4381.00
728.30	4474.00
728.74	4449.00
729.19	4410.00
729.63	4472.00
730.07	4496.00
730.51	4495.00
730.95	4481.00
731.40	4549.00
731.84	4610.00
732.28	4622.00
732.72	4677.00
733.16	4666.00
733.61	4723.00
734.05	4753.00
734.49	4718.00
734.93	4735.00
735.37	4768.00
735.81	4697.00
736.26	4749.00
736.70	4706.00
737.14	4689.00
737.58	4755.00
738.02	4749.00
738.46	4662.00
738.90	4746.00
739.35	4647.00
739.79	4772.00
740.23	4788.00
740.67	4786.00
741.11	4742.00
741.55	4769.00
741.99	4770.00
742.44	4774.00
742.88	4774.00
743.32	4781.00
743.76	4830.00
744.20	4793.00
744.64	4737.00
745.08	4785.00
745.52	4786.00
745.96	4780.00
746.40	4813.00
746.84	4838.00
747.29	4829.00
747.73	4776.00
748.17	4826.00
748.61	4794.00
749.05	4798.00
749.49	4809.00
749.93	4749.00
750.37	4769.00
750.81	4807.00
751.25	4775.00
751.69	4791.00
752.13	4817.00
752.57	4766.00
753.01	4819.00
753.45	4781.00
753.89	4800.00
754.33	4779.00
754.77	4818.00
755.21	4816.00
755.65	4784.00
756.09	4842.00
756.53	4755.00
756.97	4796.00
757.41	4765.00
757.85	4801.00
758.29	4690.00
758.73	4724.00
759.17	4546.00
759.61	3972.00
760.05	3310.00
760.49	2974.00
760.93	2932.00
761.37	3103.00
761.81	3493.00
762.25	3668.00
762.69	3487.00
763.13	3384.00
763.57	3347.00
764.01	3463.00
764.45	3585.00
764.89	3692.00
765.33	3867.00
765.77	3969.00
766.21	4089.00
766.65	4304.00
767.09	4395.00
767.53	4439.00
767.96	4555.00
768.40	4586.00
768.84	4551.00
769.28	4631.00
769.72	4592.00
770.16	4627.00
770.60	4704.00
771.04	4655.00
771.48	4652.00
771.92	4657.00
772.35	4700.00
772.79	4726.00
773.23	4716.00
773.67	4704.00
774.11	4669.00
774.55	4696.00
774.99	4648.00
775.43	4616.00
775.86	4689.00
776.30	4697.00
776.74	4718.00
777.18	4699.00
777.62	4661.00
778.06	4615.00
778.50	4659.00
778.93	4675.00
779.37	4617.00
779.81	4621.00
780.25	4563.00
780.69	4599.00
781.12	4596.00
781.56	4652.00
782.00	4669.00
782.44	4655.00
782.88	4637.00
783.32	4579.00
783.75	4570.00
784.19	4632.00
784.63	4615.00
785.07	4583.00
785.50	4569.00
785.94	4559.00
786.38	4520.00
786.82	4550.00
787.26	4545.00
787.69	4527.00
788.13	4574.00
788.57	4486.00
789.01	4509.00
789.44	4462.00
789.88	4480.00
790.32	4462.00
790.76	4443.00
791.19	4410.00
791.63	4399.00
792.07	4429.00
792.51	4399.00
792.94	4385.00
793.38	4389.00
793.82	4417.00
794.25	4426.00
794.69	4431.00
795.13	4467.00
795.56	4425.00
796.00	4374.00
796.44	4374.00
796.88	4323.00
797.31	4399.00
797.75	4435.00
798.19	4392.00
798.62	4395.00
799.06	4401.00
799.50	4410.00
799.93	4421.00
800.37	4310.00
800.81	4353.00
801.24	4356.00
801.68	4361.00
802.12	4357.00
802.55	4297.00
802.99	4304.00
803.43	4300.00
803.86	4323.00
804.30	4293.00
804.73	4295.00
805.17	4310.00
805.61	4329.00
806.04	4342.00
806.48	4358.00
806.92	4379.00
807.35	4368.00
807.79	4305.00
808.22	4329.00
808.66	4207.00
809.10	4247.00
809.53	4209.00
809.97	4232.00
810.40	4206.00
810.84	4193.00
811.27	4186.00
811.71	4148.00
812.15	4147.00
812.58	4205.00
813.02	4118.00
813.45	4008.00
813.89	3986.00
814.32	3989.00
814.76	3909.00
815.19	3849.00
815.63	3863.00
816.07	3828.00
816.50	3757.00
816.94	3783.00
817.37	3891.00
817.81	3822.00
818.24	3847.00
818.68	3888.00
819.11	3914.00
819.55	3871.00
819.98	3876.00
820.42	3987.00
820.85	4007.00
821.29	4058.00
821.72	3987.00
822.16	3902.00
822.59	3731.00
823.03	3573.00
823.46	3745.00
823.90	3874.00
824.33	3994.00
824.77	3998.00
825.20	4083.00
825.63	3972.00
826.07	3971.00
826.50	3993.00
826.94	4038.00
827.37	3870.00
827.81	3843.00
828.24	3880.00
828.68	3903.00
829.11	3861.00
829.54	3887.00
829.98	3953.00
830.41	3924.00
830.85	3991.00
831.28	3969.00
831.71	3954.00
832.15	3910.00
832.58	3994.00
833.02	3951.00
833.45	3955.00
833.88	3927.00
834.32	3970.00
834.75	4030.00
835.19	3972.00
835.62	3996.00
836.05	4012.00
836.49	4018.00
836.92	4037.00
837.35	4027.00
837.79	4077.00
838.22	4109.00
838.66	4057.00
839.09	4087.00
839.52	4084.00
839.96	4108.00
840.39	4056.00
840.82	4042.00
841.26	4020.00
841.69	4028.00
842.12	4038.00
842.56	4090.00
842.99	4059.00
843.42	4000.00
843.85	4047.00
844.29	4101.00
844.72	4060.00
845.15	4110.00
845.59	4089.00
846.02	4098.00
846.45	4113.00
846.88	4067.00
847.32	4097.00
847.75	4015.00
848.18	4049.00
848.62	4041.00
849.05	3988.00
849.48	3905.00
849.91	3877.00
850.35	3935.00
850.78	3974.00
851.21	4060.00
851.64	4020.00
852.08	4024.00
852.51	4053.00
852.94	4050.00
853.37	3956.00
853.80	3874.00
854.24	3733.00
854.67	3799.00
855.10	3920.00
855.53	3922.00
855.97	4039.00
856.40	4010.00
856.83	4030.00
857.26	4036.00
857.69	4011.00
858.13	4034.00
858.56	4070.00
858.99	3992.00
859.42	4025.00
859.85	4032.00
860.28	4023.00
860.72	4037.00
861.15	4028.00
861.58	4037.00
862.01	3990.00
862.44	3983.00
862.87	3974.00
863.30	3985.00
863.74	3985.00
864.17	3985.00
864.60	3986.00
865.03	4009.00
865.46	3932.00
865.89	3828.00
866.32	3807.00
866.75	3919.00
867.19	3938.00
867.62	3984.00
868.05	4010.00
868.48	3918.00
868.91	3946.00
869.34	3944.00
869.77	3978.00
870.20	3975.00
870.63	3937.00
871.06	3919.00
871.49	3955.00
871.93	3979.00
872.36	3968.00
872.79	3971.00
873.22	3936.00
873.65	3947.00
874.08	3911.00
874.51	3978.00
874.94	3934.00
875.37	3962.00
875.80	3964.00
876.23	3956.00
876.66	3951.00
877.09	3930.00
877.52	3899.00
877.95	3909.00
878.38	3880.00
878.81	3882.00
879.24	3864.00
879.67	3906.00
880.10	3901.00
880.53	3824.00
880.96	3898.00
881.39	3926.00
881.82	3937.00
882.25	3943.00
882.68	3909.00
883.11	3955.00
883.54	3920.00
883.97	3916.00
884.40	3936.00
884.83	3895.00
885.26	3900.00
885.69	3874.00
886.12	3863.00
886.55	3874.00
886.98	3893.00
887.40	3900.00
887.83	3898.00
888.26	3865.00
888.69	3895.00
889.12	3877.00
889.55	3879.00
889.98	3866.00
890.41	3897.00
890.84	3878.00
891.27	3854.00
891.70	3892.00
892.12	3860.00
892.55	3811.00
892.98	3781.00
893.41	3823.00
893.84	3774.00
894.27	3724.00
894.70	3683.00
895.13	3643.00
895.55	3645.00
895.98	3575.00
896.41	3569.00
896.84	3570.00
897.27	3559.00
897.70	3606.00
898.13	3555.00
898.55	3366.00
898.98	3438.00
899.41	3592.00
899.84	3478.00
900.27	3469.00
900.70	3423.00
901.12	3482.00
901.55	3469.00
901.98	3442.00
902.41	3496.00
902.84	3540.00
903.26	3636.00
903.69	3682.00
904.12	3676.00
904.55	3630.00
904.97	3657.00
905.40	3658.00
905.83	3564.00
906.26	3524.00
906.69	3486.00
907.11	3477.00
907.54	3446.00
907.97	3482.00
908.40	3419.00
908.82	3442.00
909.25	3430.00
909.68	3422.00
910.10	3446.00
910.53	3465.00
910.96	3502.00
911.39	3425.00
911.81	3483.00
912.24	3452.00
912.67	3372.00
913.09	3319.00
913.52	3412.00
913.95	3458.00
914.38	3503.00
914.80	3337.00
915.23	3339.00
915.66	3449.00
916.08	3503.00
916.51	3438.00
916.94	3340.00
917.36	3364.00
917.79	3446.00
918.22	3440.00
918.64	3484.00
919.07	3441.00
919.50	3527.00
919.92	3521.00
920.35	3507.00
920.78	3489.00
921.20	3426.00
921.63	3475.00
922.05	3490.00
922.48	3473.00
922.91	3428.00
923.33	3450.00
923.76	3439.00
924.18	3422.00
924.61	3454.00
925.04	3382.00
925.46	3398.00
925.89	3417.00
926.31	3414.00
926.74	3386.00
927.17	3295.00
927.59	3258.00
928.02	3184.00
928.44	3191.00
928.87	3168.00
929.29	3107.00
929.72	3088.00
930.15	3058.00
930.57	3003.00
931.00	2939.00
931.42	2903.00
931.85	2873.00
932.27	2880.00
932.70	2830.00
933.12	2782.00
933.55	2774.00
933.97	2772.00
934.40	2844.00
934.82	2828.00
935.25	2786.00
935.67	2829.00
936.10	2786.00
936.52	2753.00
936.95	2783.00
937.37	2756.00
937.80	2795.00
938.22	2859.00
938.65	2905.00
939.07	2935.00
939.50	2871.00
939.92	2852.00
940.35	2847.00
940.77	2823.00
941.19	2849.00
941.62	2859.00
942.04	2786.00
942.47	2798.00
942.89	2827.00
943.32	2765.00
943.74	2758.00
944.16	2803.00
944.59	2822.00
945.01	2778.00
945.44	2761.00
945.86	2796.00
946.29	2807.00
946.71	2825.00
947.13	2832.00
947.56	2797.00
947.98	2862.00
948.40	2878.00
948.83	2812.00
949.25	2775.00
949.68	2827.00
950.10	2912.00
950.52	2915.00
950.95	2876.00
951.37	2790.00
951.79	2805.00
952.22	2859.00
952.64	2881.00
953.06	2906.00
953.49	2884.00
953.91	2874.00
954.33	2891.00
954.76	2854.00
955.18	2904.00
955.60	2891.00
956.03	2887.00
956.45	2942.00
956.87	2962.00
957.30	2939.00
957.72	2939.00
958.14	2897.00
958.56	2886.00
958.99	2928.00
959.41	2978.00
959.83	2957.00
960.26	3010.00
960.68	3020.00
961.10	3018.00
961.52	2969.00
961.95	2991.00
962.37	3033.00
962.79	3042.00
963.21	2997.00
963.64	3029.00
964.06	3035.00
964.48	3067.00
964.90	3047.00
965.32	3019.00
965.75	3044.00
966.17	3092.00
966.59	3163.00
967.01	3167.00
967.44	3143.00
967.86	3168.00
968.28	3159.00
968.70	3200.00
969.12	3167.00
969.54	3178.00
969.97	3204.00
970.39	3244.00
970.81	3211.00
971.23	3171.00
971.65	3190.00
972.07	3170.00
972.50	3130.00
972.92	3132.00
973.34	3130.00
973.76	3131.00
974.18	3141.00
974.60	3113.00
975.02	3108.00
975.45	3109.00
975.87	3183.00
976.29	3158.00
976.71	3140.00
977.13	3158.00
977.55	3161.00
977.97	3161.00
978.39	3140.00
978.81	3161.00
979.24	3179.00
979.66	3216.00
980.08	3200.00
980.50	3200.00
980.92	3216.00
981.34	3205.00
981.76	3216.00
982.18	3193.00
982.60	3196.00
983.02	3216.00
983.44	3207.00
983.86	3182.00
984.28	3204.00
984.70	3197.00
985.12	3192.00
985.54	3183.00
985.96	3218.00
986.38	3192.00
986.80	3170.00
987.23	3218.00
987.65	3186.00
988.07	3206.00
988.49	3216.00
988.91	3187.00
989.33	3197.00
989.74	3214.00
990.16	3213.00
990.58	3197.00
991.00	3185.00
991.42	3175.00
991.84	3177.00
992.26	3149.00
992.68	3174.00
993.10	3164.00
993.52	3171.00
993.94	3181.00
994.36	3178.00
994.78	3158.00
995.20	3171.00
995.62	3166.00
996.04	3160.00
996.46	3163.00
996.88	3189.00
997.30	3143.00
997.71	3207.00
998.13	3188.00
998.55	3204.00
998.97	3200.00
999.39	3167.00
999.81	3219.00
1000.23	3173.00
1000.65	3203.00
1001.07	3168.00
1001.49	3196.00
1001.90	3165.00
1002.32	3161.00
1002.74	3166.00
1003.16	3162.00
1003.58	3167.00
1004.00	3152.00
1004.42	3179.00
1004.83	3169.00
1005.25	3150.00
1005.67	3127.00
1006.09	3113.00
1006.51	3132.00
1006.92	3155.00
1007.34	3145.00
1007.76	3134.00
1008.18	3131.00
1008.60	3138.00
1009.02	3146.00
1009.43	3130.00
1009.85	3148.00
1010.27	3153.00
1010.69	3138.00
1011.10	3136.00
1011.52	3132.00
1011.94	3111.00
1012.36	3135.00
1012.78	3112.00
1013.19	3089.00
1013.61	3080.00
1014.03	3074.00
1014.45	3110.00
1014.86	3077.00
1015.28	3095.00
1015.70	3090.00
1016.12	3079.00
1016.53	3089.00
1016.95	3077.00
1017.37	3064.00
1017.78	3048.00
1018.20	3048.00
1018.62	3059.00
1019.03	3021.00
1019.45	3040.00
1019.87	3031.00
1020.29	3020.00
1020.70	3032.00
1021.12	3051.00
1021.54	3026.00
1021.95	3041.00
1022.37	3002.00
1022.79	3023.00
1023.20	2999.00
1023.62	2987.00
1024.04	2982.00
1024.45	2996.00
1024.87	3015.00
1025.28	2990.00
1025.70	2983.00
1026.12	2968.00
1026.53	2969.00
1026.95	3001.00
1027.37	2951.00
1027.78	2967.00
1028.20	2965.00
1028.61	2950.00
1029.03	2953.00
1029.45	2954.00
1029.86	2928.00
1030.28	2939.00
1030.69	2931.00
1031.11	2929.00
1031.53	2931.00
1031.94	2927.00
1032.36	2907.00
1032.77	2930.00
1033.19	2937.00
1033.60	2920.00
1034.02	2911.00
1034.43	2921.00
1034.85	2892.00
1035.27	2915.00
1035.68	2894.00
1036.10	2890.00
1036.51	2898.00
1036.93	2887.00
1037.34	2894.00
1037.76	2882.00
1038.17	2883.00
1038.59	2872.00
1039.00	2879.00
1039.42	2861.00
1039.83	2870.00
1040.25	2849.00
1040.66	2878.00
1041.08	2870.00
1041.49	2845.00
1041.91	2848.00
1042.32	2850.00
1042.73	2840.00
1043.15	2852.00
1043.56	2840.00
1043.98	2811.00
1044.39	2834.00
1044.81	2815.00
1045.22	2828.00
1045.64	2803.00
1046.05	2837.00
1046.46	2794.00
1046.88	2817.00
1047.29	2797.00
1047.71	2803.00
1048.12	2812.00
1048.53	2816.00
1048.95	2784.00
1049.36	2792.00
1049.78	2779.00
1050.19	2781.00
1050.60	2772.00
1051.02	2776.00
1051.43	2783.00
1051.85	2779.00
1052.26	2775.00
1052.67	2773.00
1053.09	2767.00
1053.50	2763.00
1053.91	2773.00
1054.33	2767.00
1054.74	2766.00
1055.15	2760.00
1055.57	2750.00
1055.98	2743.00
1056.39	2743.00
1056.81	2747.00
1057.22	2727.00
1057.63	2746.00
1058.05	2730.00
1058.46	2730.00
1058.87	2739.00
1059.28	2719.00
1059.70	2731.00
1060.11	2712.00
1060.52	2742.00
1060.94	2716.00
1061.35	2715.00
1061.76	2713.00
1062.17	2713.00
1062.59	2713.00
1063.00	2710.00
1063.41	2700.00
1063.82	2705.00
1064.24	2707.00
1064.65	2706.00
1065.06	2707.00
1065.47	2716.00
1065.89	2701.00
1066.30	2697.00
1066.71	2688.00
1067.12	2699.00
1067.53	2693.00
1067.95	2687.00
1068.36	2679.00
1068.77	2681.00
1069.18	2690.00
1069.59	2692.00
1070.00	2686.00
1070.42	2674.00
1070.83	2674.00
1071.24	2679.00
1071.65	2675.00
1072.06	2678.00
1072.47	2677.00
1072.89	2668.00
1073.30	2669.00
1073.71	2667.00
1074.12	2672.00
1074.53	2658.00
1074.94	2654.00
1075.35	2668.00
1075.77	2664.00
1076.18	2649.00
1076.59	2656.00
1077.00	2653.00
1077.41	2657.00
1077.82	2645.00
1078.23	2665.00
1078.64	2657.00
1079.05	2656.00
1079.46	2651.00
1079.87	2655.00
1080.29	2651.00
1080.70	2654.00
1081.11	2648.00
1081.52	2637.00
1081.93	2634.00
1082.34	2642.00
1082.75	2640.00
1083.16	2631.00
1083.57	2635.00
1083.98	2645.00
1084.39	2639.00
1084.80	2630.00
1085.21	2630.00
1085.62	2625.00
1086.03	2648.00
1086.44	2625.00
1086.85	2636.00
1087.26	2618.00
1087.67	2632.00
1088.08	2636.00
1088.49	2626.00
1088.90	2624.00
1089.31	2637.00
1089.72	2624.00
1090.13	2638.00
1090.54	2627.00
1090.95	2632.00
1091.36	2625.00
1091.77	2609.00
1092.18	2613.00
1092.59	2623.00
1093.00	2613.00
1093.40	2611.00
1093.81	2611.00
1094.22	2615.00
1094.63	2611.00
1095.04	2607.00
1095.45	2611.00
1095.86	2609.00
1096.27	2603.00
1096.68	2616.00
1097.09	2593.00
1097.50	2601.00
1097.90	2604.00
1098.31	2598.00
1098.72	2605.00
1099.13	2606.00
1099.54	2602.00
1099.95	2605.00
1100.36	2598.00
1100.76	2602.00
1101.17	2603.00
1101.58	2600.00
1101.99	2590.00
1102.40	2603.00
1102.81	2597.00
1103.22	2589.00
1103.62	2598.00
1104.03	2592.00
1104.44	2586.00
1104.85	2586.00
1105.26	2594.00
1105.66	2585.00
1106.07	2592.00
1106.48	2590.00
1106.89	2587.00
1107.30	2586.00
1107.70	2592.00
1108.11	2586.00
1108.52	2581.00
1108.93	2580.00
1109.33	2582.00
1109.74	2592.00
1110.15	2589.00
1110.56	2585.00
1110.96	2584.00
1111.37	2581.00
1111.78	2576.00
1112.19	2590.00
1112.59	2576.00
1113.00	2587.00
1113.41	2582.00
1113.81	2581.00
1114.22	2580.00
1114.63	2561.00
1115.03	2558.00
1115.44	2558.00
1115.85	2563.00
>>>>>End Processed Spectral Data<<<<<
