SpectraSuite Data File
++++++++++++++++++++++++++++++++++++
Date: Thu Aug 05 10:45:31 EEST 2021
User: CanSEE
Dark Spectrum Present: No
Reference Spectrum Present: No
Number of Sampled Component Spectra: 1
Spectrometers: MAYP112785
Integration Time (usec): 10000 (MAYP112785)
Spectra Averaged: 1 (MAYP112785)
Boxcar Smoothing: 0 (MAYP112785)
Correct for Electrical Dark: No (MAYP112785)
Strobe/Lamp Enabled: No (MAYP112785)
Correct for Detector Non-linearity: No (MAYP112785)
Correct for Stray Light: No (MAYP112785)
Number of Pixels in Processed Spectrum: 2068
>>>>>Begin Processed Spectral Data<<<<<
198.35	3483.00
198.82	2485.00
199.30	2595.00
199.77	2582.00
200.24	2599.00
200.71	2605.00
201.18	2608.00
201.65	2614.00
202.13	2610.00
202.60	2608.00
203.07	2605.00
203.54	2615.00
204.01	2604.00
204.48	2609.00
204.96	2605.00
205.43	2602.00
205.90	2602.00
206.37	2603.00
206.84	2615.00
207.31	2601.00
207.78	2604.00
208.26	2605.00
208.73	2607.00
209.20	2612.00
209.67	2607.00
210.14	2606.00
210.61	2606.00
211.08	2624.00
211.56	2608.00
212.03	2606.00
212.50	2603.00
212.97	2607.00
213.44	2608.00
213.91	2602.00
214.38	2600.00
214.85	2603.00
215.33	2608.00
215.80	2605.00
216.27	2602.00
216.74	2603.00
217.21	2606.00
217.68	2608.00
218.15	2612.00
218.62	2611.00
219.09	2603.00
219.57	2612.00
220.04	2608.00
220.51	2604.00
220.98	2611.00
221.45	2603.00
221.92	2613.00
222.39	2602.00
222.86	2611.00
223.33	2595.00
223.80	2607.00
224.27	2607.00
224.74	2606.00
225.22	2605.00
225.69	2610.00
226.16	2603.00
226.63	2606.00
227.10	2611.00
227.57	2608.00
228.04	2605.00
228.51	2603.00
228.98	2611.00
229.45	2603.00
229.92	2601.00
230.39	2605.00
230.86	2606.00
231.33	2608.00
231.80	2612.00
232.27	2608.00
232.75	2606.00
233.22	2605.00
233.69	2609.00
234.16	2613.00
234.63	2609.00
235.10	2603.00
235.57	2610.00
236.04	2610.00
236.51	2611.00
236.98	2607.00
237.45	2606.00
237.92	2614.00
238.39	2602.00
238.86	2608.00
239.33	2664.00
239.80	2604.00
240.27	2611.00
240.74	2606.00
241.21	2615.00
241.68	2611.00
242.15	2606.00
242.62	2601.00
243.09	2604.00
243.56	2604.00
244.03	2606.00
244.50	2610.00
244.97	2604.00
245.44	2637.00
245.91	2604.00
246.38	2599.00
246.85	2615.00
247.32	2608.00
247.79	2614.00
248.26	2614.00
248.73	2601.00
249.20	2610.00
249.67	2617.00
250.14	2605.00
250.61	2612.00
251.08	2611.00
251.55	2609.00
252.02	2603.00
252.49	2602.00
252.96	2612.00
253.43	2597.00
253.90	2606.00
254.37	2607.00
254.84	2599.00
255.31	2606.00
255.77	2612.00
256.24	2597.00
256.71	2613.00
257.18	2618.00
257.65	2606.00
258.12	2613.00
258.59	2610.00
259.06	2607.00
259.53	2612.00
260.00	2606.00
260.47	2610.00
260.94	2612.00
261.41	2608.00
261.88	2610.00
262.35	2611.00
262.81	2603.00
263.28	2605.00
263.75	2604.00
264.22	2604.00
264.69	2611.00
265.16	2604.00
265.63	2616.00
266.10	2602.00
266.57	2613.00
267.04	2616.00
267.51	2604.00
267.97	2609.00
268.44	2611.00
268.91	2609.00
269.38	2607.00
269.85	2604.00
270.32	2606.00
270.79	2614.00
271.26	2604.00
271.73	2603.00
272.19	2601.00
272.66	2607.00
273.13	2614.00
273.60	2608.00
274.07	2607.00
274.54	2609.00
275.01	2616.00
275.48	2608.00
275.94	2604.00
276.41	2611.00
276.88	2606.00
277.35	2600.00
277.82	2604.00
278.29	2604.00
278.76	2605.00
279.22	2609.00
279.69	2609.00
280.16	2612.00
280.63	2601.00
281.10	2608.00
281.57	2610.00
282.04	2606.00
282.50	2609.00
282.97	2610.00
283.44	2614.00
283.91	2602.00
284.38	2615.00
284.85	2608.00
285.31	2605.00
285.78	2602.00
286.25	2605.00
286.72	2602.00
287.19	2607.00
287.65	2608.00
288.12	2605.00
288.59	2601.00
289.06	2619.00
289.53	2609.00
289.99	2605.00
290.46	2610.00
290.93	2603.00
291.40	2618.00
291.87	2612.00
292.33	2605.00
292.80	2607.00
293.27	2608.00
293.74	2603.00
294.21	2612.00
294.67	2601.00
295.14	2620.00
295.61	2613.00
296.08	2613.00
296.54	2618.00
297.01	2611.00
297.48	2611.00
297.95	2608.00
298.42	2611.00
298.88	2607.00
299.35	2610.00
299.82	2607.00
300.29	2606.00
300.75	2605.00
301.22	2609.00
301.69	2606.00
302.16	2609.00
302.62	2603.00
303.09	2606.00
303.56	2607.00
304.03	2611.00
304.49	2612.00
304.96	2612.00
305.43	2620.00
305.90	2612.00
306.36	2609.00
306.83	2618.00
307.30	2614.00
307.76	2619.00
308.23	2619.00
308.70	2627.00
309.17	2622.00
309.63	2628.00
310.10	2627.00
310.57	2635.00
311.03	2642.00
311.50	2644.00
311.97	2655.00
312.44	2652.00
312.90	2649.00
313.37	2658.00
313.84	2673.00
314.30	2658.00
314.77	2663.00
315.24	2665.00
315.70	2666.00
316.17	2674.00
316.64	2678.00
317.10	2680.00
317.57	2701.00
318.04	2688.00
318.50	2682.00
318.97	2701.00
319.44	2701.00
319.90	2703.00
320.37	2724.00
320.84	2727.00
321.30	2716.00
321.77	2727.00
322.24	2711.00
322.70	2714.00
323.17	2710.00
323.64	2722.00
324.10	2758.00
324.57	2750.00
325.04	2752.00
325.50	2758.00
325.97	2777.00
326.44	2798.00
326.90	2810.00
327.37	2803.00
327.84	2801.00
328.30	2806.00
328.77	2801.00
329.23	2851.00
329.70	2838.00
330.17	2856.00
330.63	2828.00
331.10	2816.00
331.56	2810.00
332.03	2840.00
332.50	2829.00
332.96	2844.00
333.43	2832.00
333.90	2834.00
334.36	2819.00
334.83	2832.00
335.29	2848.00
335.76	2859.00
336.22	2836.00
336.69	2814.00
337.16	2811.00
337.62	2811.00
338.09	2843.00
338.55	2849.00
339.02	2859.00
339.49	2861.00
339.95	2881.00
340.42	2913.00
340.88	2882.00
341.35	2874.00
341.81	2876.00
342.28	2885.00
342.75	2893.00
343.21	2875.00
343.68	2873.00
344.14	2874.00
344.61	2858.00
345.07	2868.00
345.54	2909.00
346.00	2905.00
346.47	2891.00
346.93	2912.00
347.40	2897.00
347.87	2902.00
348.33	2901.00
348.80	2914.00
349.26	2913.00
349.73	2916.00
350.19	2959.00
350.66	2982.00
351.12	2945.00
351.59	2946.00
352.05	2933.00
352.52	2932.00
352.98	2937.00
353.45	2962.00
353.91	2975.00
354.38	3001.00
354.84	2992.00
355.31	2986.00
355.77	2971.00
356.24	2941.00
356.70	2952.00
357.17	2916.00
357.63	2913.00
358.10	2911.00
358.56	2896.00
359.03	2898.00
359.49	2974.00
359.96	3015.00
360.42	2990.00
360.89	2940.00
361.35	2978.00
361.82	2966.00
362.28	2968.00
362.75	2994.00
363.21	3021.00
363.67	3001.00
364.14	3017.00
364.60	3023.00
365.07	3023.00
365.53	3046.00
366.00	3092.00
366.46	3073.00
366.93	3097.00
367.39	3075.00
367.86	3064.00
368.32	3071.00
368.78	3069.00
369.25	3062.00
369.71	3108.00
370.18	3116.00
370.64	3106.00
371.11	3095.00
371.57	3105.00
372.03	3117.00
372.50	3049.00
372.96	3035.00
373.43	3017.00
373.89	3014.00
374.35	3023.00
374.82	3040.00
375.28	3047.00
375.75	3091.00
376.21	3120.00
376.67	3132.00
377.14	3159.00
377.60	3190.00
378.07	3233.00
378.53	3201.00
378.99	3215.00
379.46	3144.00
379.92	3143.00
380.39	3150.00
380.85	3194.00
381.31	3178.00
381.78	3115.00
382.24	3040.00
382.70	3032.00
383.17	2997.00
383.63	2998.00
384.09	3058.00
384.56	3062.00
385.02	3152.00
385.48	3166.00
385.95	3128.00
386.41	3146.00
386.88	3159.00
387.34	3157.00
387.80	3129.00
388.27	3188.00
388.73	3196.00
389.19	3230.00
389.66	3276.00
390.12	3349.00
390.58	3328.00
391.05	3303.00
391.51	3333.00
391.97	3285.00
392.43	3219.00
392.90	3141.00
393.36	3072.00
393.82	3073.00
394.29	3163.00
394.75	3270.00
395.21	3324.00
395.68	3351.00
396.14	3344.00
396.60	3217.00
397.07	3186.00
397.53	3234.00
397.99	3417.00
398.45	3542.00
398.92	3625.00
399.38	3678.00
399.84	3730.00
400.31	3695.00
400.77	3732.00
401.23	3747.00
401.69	3795.00
402.16	3827.00
402.62	3790.00
403.08	3797.00
403.54	3780.00
404.01	3750.00
404.47	3800.00
404.93	3758.00
405.39	3803.00
405.86	3765.00
406.32	3719.00
406.78	3767.00
407.24	3818.00
407.71	3830.00
408.17	3825.00
408.63	3824.00
409.09	3899.00
409.56	3884.00
410.02	3866.00
410.48	3830.00
410.94	3890.00
411.40	3911.00
411.87	3964.00
412.33	3982.00
412.79	3983.00
413.25	3922.00
413.71	3957.00
414.18	3975.00
414.64	4024.00
415.10	3989.00
415.56	3997.00
416.02	3998.00
416.49	4014.00
416.95	4040.00
417.41	4012.00
417.87	3979.00
418.33	3988.00
418.80	3992.00
419.26	4015.00
419.72	4020.00
420.18	4014.00
420.64	4022.00
421.10	4086.00
421.57	4060.00
422.03	4075.00
422.49	4027.00
422.95	4027.00
423.41	4049.00
423.87	4048.00
424.34	4030.00
424.80	4033.00
425.26	4033.00
425.72	4060.00
426.18	4061.00
426.64	4069.00
427.10	4064.00
427.57	4013.00
428.03	3975.00
428.49	4011.00
428.95	3961.00
429.41	3901.00
429.87	3857.00
430.33	3822.00
430.79	3814.00
431.26	3887.00
431.72	3989.00
432.18	4185.00
432.64	4227.00
433.10	4128.00
433.56	4174.00
434.02	4213.00
434.48	4135.00
434.94	4213.00
435.40	4329.00
435.87	4299.00
436.33	4352.00
436.79	4368.00
437.25	4352.00
437.71	4291.00
438.17	4226.00
438.63	4239.00
439.09	4233.00
439.55	4302.00
440.01	4361.00
440.47	4403.00
440.93	4413.00
441.39	4452.00
441.85	4554.00
442.32	4552.00
442.78	4546.00
443.24	4548.00
443.70	4624.00
444.16	4567.00
444.62	4570.00
445.08	4612.00
445.54	4573.00
446.00	4565.00
446.46	4578.00
446.92	4620.00
447.38	4664.00
447.84	4717.00
448.30	4732.00
448.76	4725.00
449.22	4789.00
449.68	4774.00
450.14	4813.00
450.60	4901.00
451.06	4864.00
451.52	4877.00
451.98	4821.00
452.44	4757.00
452.90	4742.00
453.36	4749.00
453.82	4708.00
454.28	4820.00
454.74	4833.00
455.20	4835.00
455.66	4819.00
456.12	4839.00
456.58	4959.00
457.04	4887.00
457.50	4920.00
457.96	4910.00
458.42	4923.00
458.88	4905.00
459.34	4891.00
459.80	4885.00
460.26	4935.00
460.72	5017.00
461.18	4950.00
461.64	5011.00
462.10	5013.00
462.55	4995.00
463.01	5060.00
463.47	5025.00
463.93	5065.00
464.39	4974.00
464.85	4955.00
465.31	4978.00
465.77	4986.00
466.23	5022.00
466.69	4977.00
467.15	4999.00
467.61	4998.00
468.07	5028.00
468.52	5031.00
468.98	4984.00
469.44	5003.00
469.90	5000.00
470.36	4993.00
470.82	5010.00
471.28	5063.00
471.74	5081.00
472.20	5089.00
472.66	5106.00
473.11	5099.00
473.57	5082.00
474.03	5123.00
474.49	5121.00
474.95	5120.00
475.41	5113.00
475.87	5110.00
476.33	5171.00
476.78	5164.00
477.24	5176.00
477.70	5209.00
478.16	5224.00
478.62	5223.00
479.08	5200.00
479.54	5225.00
479.99	5284.00
480.45	5300.00
480.91	5225.00
481.37	5275.00
481.83	5293.00
482.29	5277.00
482.74	5337.00
483.20	5210.00
483.66	5230.00
484.12	5215.00
484.58	5172.00
485.04	5127.00
485.49	5001.00
485.95	4967.00
486.41	4896.00
486.87	4929.00
487.33	5050.00
487.78	5139.00
488.24	5169.00
488.70	5193.00
489.16	5246.00
489.62	5233.00
490.07	5264.00
490.53	5312.00
490.99	5222.00
491.45	5228.00
491.90	5205.00
492.36	5229.00
492.82	5231.00
493.28	5313.00
493.74	5347.00
494.19	5398.00
494.65	5388.00
495.11	5370.00
495.57	5359.00
496.02	5360.00
496.48	5358.00
496.94	5382.00
497.40	5319.00
497.85	5343.00
498.31	5361.00
498.77	5326.00
499.23	5322.00
499.68	5315.00
500.14	5282.00
500.60	5259.00
501.06	5234.00
501.51	5180.00
501.97	5206.00
502.43	5304.00
502.88	5238.00
503.34	5315.00
503.80	5321.00
504.26	5272.00
504.71	5282.00
505.17	5335.00
505.63	5425.00
506.08	5420.00
506.54	5461.00
507.00	5396.00
507.45	5355.00
507.91	5325.00
508.37	5380.00
508.82	5373.00
509.28	5428.00
509.74	5429.00
510.19	5423.00
510.65	5411.00
511.11	5494.00
511.56	5473.00
512.02	5483.00
512.48	5446.00
512.93	5379.00
513.39	5391.00
513.85	5385.00
514.30	5434.00
514.76	5404.00
515.22	5384.00
515.67	5368.00
516.13	5290.00
516.59	5208.00
517.04	5148.00
517.50	5105.00
517.95	5124.00
518.41	5280.00
518.87	5250.00
519.32	5279.00
519.78	5378.00
520.24	5456.00
520.69	5473.00
521.15	5434.00
521.60	5520.00
522.06	5499.00
522.52	5490.00
522.97	5467.00
523.43	5516.00
523.88	5558.00
524.34	5592.00
524.80	5614.00
525.25	5645.00
525.71	5533.00
526.16	5458.00
526.62	5405.00
527.07	5351.00
527.53	5362.00
527.99	5492.00
528.44	5661.00
528.90	5657.00
529.35	5617.00
529.81	5674.00
530.26	5626.00
530.72	5674.00
531.17	5753.00
531.63	5707.00
532.09	5619.00
532.54	5590.00
533.00	5568.00
533.45	5541.00
533.91	5654.00
534.36	5633.00
534.82	5614.00
535.27	5729.00
535.73	5679.00
536.18	5720.00
536.64	5680.00
537.09	5605.00
537.55	5609.00
538.00	5672.00
538.46	5719.00
538.91	5724.00
539.37	5655.00
539.82	5619.00
540.28	5616.00
540.73	5608.00
541.19	5617.00
541.64	5592.00
542.10	5654.00
542.55	5614.00
543.01	5718.00
543.46	5745.00
543.92	5690.00
544.37	5778.00
544.83	5739.00
545.28	5677.00
545.74	5715.00
546.19	5705.00
546.64	5725.00
547.10	5756.00
547.55	5743.00
548.01	5686.00
548.46	5764.00
548.92	5788.00
549.37	5746.00
549.83	5753.00
550.28	5763.00
550.73	5788.00
551.19	5807.00
551.64	5827.00
552.10	5743.00
552.55	5781.00
553.00	5737.00
553.46	5796.00
553.91	5813.00
554.37	5764.00
554.82	5838.00
555.28	5838.00
555.73	5777.00
556.18	5732.00
556.64	5700.00
557.09	5735.00
557.54	5642.00
558.00	5731.00
558.45	5717.00
558.91	5683.00
559.36	5657.00
559.81	5708.00
560.27	5761.00
560.72	5726.00
561.17	5720.00
561.63	5767.00
562.08	5708.00
562.54	5783.00
562.99	5787.00
563.44	5823.00
563.90	5786.00
564.35	5789.00
564.80	5727.00
565.26	5750.00
565.71	5751.00
566.16	5801.00
566.62	5738.00
567.07	5764.00
567.52	5791.00
567.98	5753.00
568.43	5725.00
568.88	5760.00
569.34	5692.00
569.79	5735.00
570.24	5664.00
570.69	5649.00
571.15	5639.00
571.60	5702.00
572.05	5730.00
572.51	5783.00
572.96	5834.00
573.41	5840.00
573.86	5827.00
574.32	5852.00
574.77	5761.00
575.22	5769.00
575.68	5777.00
576.13	5795.00
576.58	5784.00
577.03	5752.00
577.49	5712.00
577.94	5756.00
578.39	5761.00
578.84	5766.00
579.30	5746.00
579.75	5840.00
580.20	5763.00
580.65	5844.00
581.11	5903.00
581.56	5845.00
582.01	5920.00
582.46	5918.00
582.92	5876.00
583.37	5949.00
583.82	5886.00
584.27	5951.00
584.72	5972.00
585.18	5862.00
585.63	5824.00
586.08	5853.00
586.53	5865.00
586.98	5870.00
587.44	5874.00
587.89	5871.00
588.34	5713.00
588.79	5592.00
589.24	5526.00
589.70	5524.00
590.15	5607.00
590.60	5671.00
591.05	5803.00
591.50	5785.00
591.96	5726.00
592.41	5747.00
592.86	5812.00
593.31	5791.00
593.76	5786.00
594.21	5759.00
594.66	5721.00
595.12	5730.00
595.57	5745.00
596.02	5812.00
596.47	5752.00
596.92	5718.00
597.37	5770.00
597.82	5765.00
598.28	5814.00
598.73	5804.00
599.18	5824.00
599.63	5797.00
600.08	5782.00
600.53	5858.00
600.98	5786.00
601.43	5828.00
601.88	5781.00
602.34	5751.00
602.79	5822.00
603.24	5830.00
603.69	5912.00
604.14	5880.00
604.59	5895.00
605.04	5836.00
605.49	5858.00
605.94	5780.00
606.39	5850.00
606.84	5915.00
607.30	5892.00
607.75	5862.00
608.20	5839.00
608.65	5804.00
609.10	5814.00
609.55	5923.00
610.00	5840.00
610.45	5838.00
610.90	5899.00
611.35	5833.00
611.80	5841.00
612.25	5855.00
612.70	5860.00
613.15	5824.00
613.60	5819.00
614.05	5794.00
614.50	5880.00
614.95	5810.00
615.40	5868.00
615.85	5765.00
616.30	5739.00
616.75	5729.00
617.20	5732.00
617.65	5778.00
618.10	5869.00
618.55	5888.00
619.00	5922.00
619.45	5870.00
619.90	5866.00
620.35	5903.00
620.80	5918.00
621.25	5908.00
621.70	5852.00
622.15	5848.00
622.60	5847.00
623.05	5899.00
623.50	5873.00
623.95	5766.00
624.40	5785.00
624.85	5820.00
625.30	5756.00
625.75	5753.00
626.20	5755.00
626.65	5843.00
627.10	5826.00
627.55	5783.00
627.99	5687.00
628.44	5684.00
628.89	5757.00
629.34	5720.00
629.79	5747.00
630.24	5760.00
630.69	5761.00
631.14	5779.00
631.59	5790.00
632.04	5814.00
632.49	5761.00
632.94	5827.00
633.38	5843.00
633.83	5831.00
634.28	5862.00
634.73	5888.00
635.18	5842.00
635.63	5906.00
636.08	5930.00
636.53	5847.00
636.97	5824.00
637.42	5914.00
637.87	5911.00
638.32	5969.00
638.77	5949.00
639.22	5957.00
639.67	5927.00
640.11	5886.00
640.56	5868.00
641.01	5779.00
641.46	5855.00
641.91	5853.00
642.36	5859.00
642.81	5964.00
643.25	5909.00
643.70	5927.00
644.15	5931.00
644.60	5882.00
645.05	5899.00
645.49	5926.00
645.94	5915.00
646.39	5897.00
646.84	5811.00
647.29	5772.00
647.73	5818.00
648.18	5796.00
648.63	5820.00
649.08	5662.00
649.53	5772.00
649.97	5743.00
650.42	5766.00
650.87	5826.00
651.32	5885.00
651.77	5765.00
652.21	5813.00
652.66	5914.00
653.11	5865.00
653.56	5911.00
654.00	5891.00
654.45	5745.00
654.90	5821.00
655.35	5729.00
655.79	5595.00
656.24	5393.00
656.69	5408.00
657.14	5484.00
657.58	5665.00
658.03	5746.00
658.48	5798.00
658.92	5776.00
659.37	5888.00
659.82	5798.00
660.27	5885.00
660.71	5862.00
661.16	5911.00
661.61	5895.00
662.05	5881.00
662.50	5852.00
662.95	5895.00
663.39	5869.00
663.84	5917.00
664.29	5883.00
664.74	5892.00
665.18	5887.00
665.63	5911.00
666.08	5870.00
666.52	5906.00
666.97	5836.00
667.42	5949.00
667.86	5896.00
668.31	5871.00
668.76	5908.00
669.20	5844.00
669.65	5905.00
670.09	5905.00
670.54	5840.00
670.99	5876.00
671.43	5875.00
671.88	5815.00
672.33	5855.00
672.77	5870.00
673.22	5858.00
673.66	5887.00
674.11	5833.00
674.56	5849.00
675.00	5808.00
675.45	5829.00
675.90	5894.00
676.34	5794.00
676.79	5849.00
677.23	5833.00
677.68	5835.00
678.12	5800.00
678.57	5812.00
679.02	5845.00
679.46	5798.00
679.91	5799.00
680.35	5846.00
680.80	5854.00
681.25	5870.00
681.69	5762.00
682.14	5832.00
682.58	5734.00
683.03	5776.00
683.47	5811.00
683.92	5789.00
684.36	5773.00
684.81	5713.00
685.25	5783.00
685.70	5734.00
686.15	5646.00
686.59	5522.00
687.04	5080.00
687.48	4888.00
687.93	4971.00
688.37	5174.00
688.82	5290.00
689.26	5241.00
689.71	5220.00
690.15	5268.00
690.60	5293.00
691.04	5373.00
691.49	5429.00
691.93	5509.00
692.38	5493.00
692.82	5521.00
693.27	5474.00
693.71	5439.00
694.16	5459.00
694.60	5438.00
695.04	5490.00
695.49	5447.00
695.93	5529.00
696.38	5614.00
696.82	5602.00
697.27	5618.00
697.71	5547.00
698.16	5593.00
698.60	5536.00
699.04	5459.00
699.49	5514.00
699.93	5480.00
700.38	5480.00
700.82	5448.00
701.27	5408.00
701.71	5500.00
702.15	5497.00
702.60	5456.00
703.04	5461.00
703.49	5506.00
703.93	5478.00
704.37	5491.00
704.82	5597.00
705.26	5546.00
705.71	5579.00
706.15	5537.00
706.59	5547.00
707.04	5564.00
707.48	5565.00
707.93	5578.00
708.37	5556.00
708.81	5530.00
709.26	5533.00
709.70	5562.00
710.14	5553.00
710.59	5590.00
711.03	5589.00
711.47	5492.00
711.92	5462.00
712.36	5501.00
712.80	5511.00
713.25	5572.00
713.69	5533.00
714.13	5543.00
714.58	5446.00
715.02	5399.00
715.46	5415.00
715.91	5399.00
716.35	5316.00
716.79	5153.00
717.24	4975.00
717.68	4913.00
718.12	4830.00
718.57	4736.00
719.01	4712.00
719.45	4652.00
719.89	4700.00
720.34	4711.00
720.78	4806.00
721.22	4983.00
721.66	5138.00
722.11	5212.00
722.55	5188.00
722.99	5119.00
723.44	5001.00
723.88	4855.00
724.32	4820.00
724.76	4842.00
725.21	4837.00
725.65	4799.00
726.09	4927.00
726.53	4896.00
726.97	4902.00
727.42	4920.00
727.86	4845.00
728.30	4898.00
728.74	4864.00
729.19	4909.00
729.63	4823.00
730.07	4906.00
730.51	5002.00
730.95	4870.00
731.40	4992.00
731.84	5003.00
732.28	5072.00
732.72	5143.00
733.16	5206.00
733.61	5211.00
734.05	5264.00
734.49	5246.00
734.93	5215.00
735.37	5170.00
735.81	5213.00
736.26	5147.00
736.70	5221.00
737.14	5264.00
737.58	5216.00
738.02	5240.00
738.46	5269.00
738.90	5182.00
739.35	5159.00
739.79	5177.00
740.23	5270.00
740.67	5223.00
741.11	5204.00
741.55	5182.00
741.99	5247.00
742.44	5174.00
742.88	5310.00
743.32	5227.00
743.76	5274.00
744.20	5259.00
744.64	5213.00
745.08	5266.00
745.52	5246.00
745.96	5345.00
746.40	5258.00
746.84	5229.00
747.29	5316.00
747.73	5236.00
748.17	5315.00
748.61	5271.00
749.05	5289.00
749.49	5261.00
749.93	5242.00
750.37	5251.00
750.81	5293.00
751.25	5263.00
751.69	5289.00
752.13	5247.00
752.57	5252.00
753.01	5259.00
753.45	5308.00
753.89	5320.00
754.33	5287.00
754.77	5204.00
755.21	5271.00
755.65	5272.00
756.09	5242.00
756.53	5284.00
756.97	5234.00
757.41	5225.00
757.85	5250.00
758.29	5202.00
758.73	5109.00
759.17	4975.00
759.61	4329.00
760.05	3610.00
760.49	3171.00
760.93	3064.00
761.37	3243.00
761.81	3723.00
762.25	3929.00
762.69	3772.00
763.13	3607.00
763.57	3655.00
764.01	3699.00
764.45	3842.00
764.89	4037.00
765.33	4159.00
765.77	4352.00
766.21	4505.00
766.65	4619.00
767.09	4779.00
767.53	4918.00
767.96	4949.00
768.40	5042.00
768.84	5080.00
769.28	4999.00
769.72	5089.00
770.16	5053.00
770.60	5106.00
771.04	5129.00
771.48	5141.00
771.92	5103.00
772.35	5140.00
772.79	5164.00
773.23	5160.00
773.67	5198.00
774.11	5151.00
774.55	5096.00
774.99	5012.00
775.43	5086.00
775.86	5115.00
776.30	5168.00
776.74	5151.00
777.18	5144.00
777.62	5118.00
778.06	5082.00
778.50	5103.00
778.93	5090.00
779.37	5096.00
779.81	5051.00
780.25	4981.00
780.69	5021.00
781.12	5029.00
781.56	5034.00
782.00	5061.00
782.44	5031.00
782.88	5078.00
783.32	5047.00
783.75	5058.00
784.19	5060.00
784.63	4991.00
785.07	5059.00
785.50	4952.00
785.94	5003.00
786.38	4961.00
786.82	4974.00
787.26	4922.00
787.69	4937.00
788.13	4922.00
788.57	4898.00
789.01	4947.00
789.44	4888.00
789.88	4864.00
790.32	4849.00
790.76	4841.00
791.19	4860.00
791.63	4850.00
792.07	4790.00
792.51	4792.00
792.94	4742.00
793.38	4762.00
793.82	4840.00
794.25	4829.00
794.69	4831.00
795.13	4876.00
795.56	4811.00
796.00	4772.00
796.44	4771.00
796.88	4740.00
797.31	4737.00
797.75	4792.00
798.19	4807.00
798.62	4745.00
799.06	4809.00
799.50	4775.00
799.93	4747.00
800.37	4755.00
800.81	4734.00
801.24	4737.00
801.68	4790.00
802.12	4709.00
802.55	4717.00
802.99	4668.00
803.43	4632.00
803.86	4704.00
804.30	4655.00
804.73	4650.00
805.17	4636.00
805.61	4732.00
806.04	4755.00
806.48	4745.00
806.92	4679.00
807.35	4695.00
807.79	4685.00
808.22	4663.00
808.66	4615.00
809.10	4622.00
809.53	4561.00
809.97	4581.00
810.40	4609.00
810.84	4612.00
811.27	4548.00
811.71	4515.00
812.15	4490.00
812.58	4497.00
813.02	4455.00
813.45	4390.00
813.89	4363.00
814.32	4274.00
814.76	4206.00
815.19	4186.00
815.63	4178.00
816.07	4149.00
816.50	4071.00
816.94	4064.00
817.37	4225.00
817.81	4114.00
818.24	4114.00
818.68	4163.00
819.11	4197.00
819.55	4216.00
819.98	4174.00
820.42	4297.00
820.85	4382.00
821.29	4350.00
821.72	4273.00
822.16	4238.00
822.59	4032.00
823.03	3829.00
823.46	3939.00
823.90	4149.00
824.33	4260.00
824.77	4370.00
825.20	4421.00
825.63	4290.00
826.07	4303.00
826.50	4354.00
826.94	4396.00
827.37	4254.00
827.81	4181.00
828.24	4198.00
828.68	4199.00
829.11	4187.00
829.54	4199.00
829.98	4279.00
830.41	4223.00
830.85	4262.00
831.28	4287.00
831.71	4233.00
832.15	4225.00
832.58	4291.00
833.02	4253.00
833.45	4219.00
833.88	4220.00
834.32	4299.00
834.75	4294.00
835.19	4339.00
835.62	4271.00
836.05	4311.00
836.49	4319.00
836.92	4309.00
837.35	4374.00
837.79	4387.00
838.22	4356.00
838.66	4356.00
839.09	4424.00
839.52	4431.00
839.96	4409.00
840.39	4350.00
840.82	4415.00
841.26	4320.00
841.69	4336.00
842.12	4337.00
842.56	4367.00
842.99	4375.00
843.42	4361.00
843.85	4369.00
844.29	4382.00
844.72	4403.00
845.15	4403.00
845.59	4432.00
846.02	4431.00
846.45	4426.00
846.88	4359.00
847.32	4345.00
847.75	4392.00
848.18	4369.00
848.62	4364.00
849.05	4302.00
849.48	4228.00
849.91	4182.00
850.35	4247.00
850.78	4344.00
851.21	4361.00
851.64	4319.00
852.08	4369.00
852.51	4384.00
852.94	4359.00
853.37	4307.00
853.80	4150.00
854.24	3977.00
854.67	4108.00
855.10	4252.00
855.53	4248.00
855.97	4292.00
856.40	4340.00
856.83	4294.00
857.26	4287.00
857.69	4381.00
858.13	4354.00
858.56	4315.00
858.99	4355.00
859.42	4346.00
859.85	4350.00
860.28	4337.00
860.72	4359.00
861.15	4313.00
861.58	4336.00
862.01	4317.00
862.44	4277.00
862.87	4317.00
863.30	4293.00
863.74	4307.00
864.17	4294.00
864.60	4257.00
865.03	4305.00
865.46	4213.00
865.89	4051.00
866.32	4040.00
866.75	4137.00
867.19	4275.00
867.62	4289.00
868.05	4285.00
868.48	4314.00
868.91	4243.00
869.34	4278.00
869.77	4321.00
870.20	4199.00
870.63	4259.00
871.06	4207.00
871.49	4178.00
871.93	4252.00
872.36	4237.00
872.79	4222.00
873.22	4259.00
873.65	4189.00
874.08	4260.00
874.51	4274.00
874.94	4198.00
875.37	4246.00
875.80	4251.00
876.23	4234.00
876.66	4240.00
877.09	4239.00
877.52	4192.00
877.95	4158.00
878.38	4258.00
878.81	4168.00
879.24	4150.00
879.67	4221.00
880.10	4165.00
880.53	4097.00
880.96	4107.00
881.39	4236.00
881.82	4257.00
882.25	4237.00
882.68	4209.00
883.11	4225.00
883.54	4234.00
883.97	4215.00
884.40	4231.00
884.83	4219.00
885.26	4154.00
885.69	4150.00
886.12	4126.00
886.55	4076.00
886.98	4152.00
887.40	4155.00
887.83	4166.00
888.26	4206.00
888.69	4207.00
889.12	4125.00
889.55	4207.00
889.98	4178.00
890.41	4163.00
890.84	4179.00
891.27	4127.00
891.70	4160.00
892.12	4146.00
892.55	4076.00
892.98	4022.00
893.41	4050.00
893.84	4066.00
894.27	3989.00
894.70	3907.00
895.13	3869.00
895.55	3908.00
895.98	3833.00
896.41	3797.00
896.84	3797.00
897.27	3753.00
897.70	3830.00
898.13	3785.00
898.55	3574.00
898.98	3585.00
899.41	3777.00
899.84	3696.00
900.27	3675.00
900.70	3725.00
901.12	3682.00
901.55	3690.00
901.98	3681.00
902.41	3742.00
902.84	3825.00
903.26	3920.00
903.69	3942.00
904.12	3910.00
904.55	3901.00
904.97	3895.00
905.40	3878.00
905.83	3804.00
906.26	3757.00
906.69	3678.00
907.11	3680.00
907.54	3646.00
907.97	3651.00
908.40	3673.00
908.82	3682.00
909.25	3629.00
909.68	3643.00
910.10	3635.00
910.53	3645.00
910.96	3752.00
911.39	3694.00
911.81	3725.00
912.24	3720.00
912.67	3585.00
913.09	3511.00
913.52	3601.00
913.95	3679.00
914.38	3714.00
914.80	3573.00
915.23	3495.00
915.66	3633.00
916.08	3705.00
916.51	3691.00
916.94	3555.00
917.36	3571.00
917.79	3642.00
918.22	3686.00
918.64	3691.00
919.07	3670.00
919.50	3736.00
919.92	3798.00
920.35	3734.00
920.78	3679.00
921.20	3661.00
921.63	3692.00
922.05	3681.00
922.48	3683.00
922.91	3662.00
923.33	3662.00
923.76	3636.00
924.18	3642.00
924.61	3655.00
925.04	3633.00
925.46	3585.00
925.89	3621.00
926.31	3621.00
926.74	3620.00
927.17	3488.00
927.59	3441.00
928.02	3377.00
928.44	3320.00
928.87	3314.00
929.29	3222.00
929.72	3208.00
930.15	3200.00
930.57	3137.00
931.00	3071.00
931.42	2990.00
931.85	2952.00
932.27	2979.00
932.70	2973.00
933.12	2866.00
933.55	2833.00
933.97	2857.00
934.40	2945.00
934.82	2922.00
935.25	2864.00
935.67	2907.00
936.10	2878.00
936.52	2827.00
936.95	2863.00
937.37	2835.00
937.80	2863.00
938.22	2950.00
938.65	3037.00
939.07	3048.00
939.50	2983.00
939.92	2952.00
940.35	2931.00
940.77	2918.00
941.19	2945.00
941.62	2932.00
942.04	2882.00
942.47	2863.00
942.89	2912.00
943.32	2843.00
943.74	2818.00
944.16	2895.00
944.59	2918.00
945.01	2865.00
945.44	2834.00
945.86	2884.00
946.29	2901.00
946.71	2909.00
947.13	2920.00
947.56	2858.00
947.98	2957.00
948.40	2988.00
948.83	2892.00
949.25	2847.00
949.68	2879.00
950.10	3032.00
950.52	3027.00
950.95	2939.00
951.37	2884.00
951.79	2882.00
952.22	2939.00
952.64	3008.00
953.06	2996.00
953.49	2976.00
953.91	2974.00
954.33	2996.00
954.76	2955.00
955.18	2963.00
955.60	3005.00
956.03	2989.00
956.45	3056.00
956.87	3090.00
957.30	3080.00
957.72	3078.00
958.14	3012.00
958.56	2980.00
958.99	3024.00
959.41	3103.00
959.83	3071.00
960.26	3120.00
960.68	3140.00
961.10	3104.00
961.52	3081.00
961.95	3128.00
962.37	3192.00
962.79	3162.00
963.21	3131.00
963.64	3144.00
964.06	3159.00
964.48	3219.00
964.90	3215.00
965.32	3158.00
965.75	3188.00
966.17	3212.00
966.59	3264.00
967.01	3320.00
967.44	3298.00
967.86	3308.00
968.28	3342.00
968.70	3383.00
969.12	3352.00
969.54	3355.00
969.97	3365.00
970.39	3391.00
970.81	3355.00
971.23	3380.00
971.65	3301.00
972.07	3322.00
972.50	3323.00
972.92	3275.00
973.34	3248.00
973.76	3285.00
974.18	3301.00
974.60	3293.00
975.02	3260.00
975.45	3234.00
975.87	3287.00
976.29	3322.00
976.71	3328.00
977.13	3294.00
977.55	3293.00
977.97	3301.00
978.39	3256.00
978.81	3327.00
979.24	3325.00
979.66	3332.00
980.08	3371.00
980.50	3344.00
980.92	3335.00
981.34	3355.00
981.76	3333.00
982.18	3367.00
982.60	3364.00
983.02	3361.00
983.44	3332.00
983.86	3375.00
984.28	3360.00
984.70	3353.00
985.12	3358.00
985.54	3364.00
985.96	3331.00
986.38	3286.00
986.80	3328.00
987.23	3371.00
987.65	3365.00
988.07	3371.00
988.49	3360.00
988.91	3327.00
989.33	3368.00
989.74	3350.00
990.16	3326.00
990.58	3344.00
991.00	3343.00
991.42	3334.00
991.84	3353.00
992.26	3333.00
992.68	3333.00
993.10	3313.00
993.52	3332.00
993.94	3321.00
994.36	3302.00
994.78	3306.00
995.20	3280.00
995.62	3302.00
996.04	3304.00
996.46	3350.00
996.88	3311.00
997.30	3342.00
997.71	3339.00
998.13	3337.00
998.55	3321.00
998.97	3341.00
999.39	3355.00
999.81	3339.00
1000.23	3346.00
1000.65	3311.00
1001.07	3297.00
1001.49	3351.00
1001.90	3295.00
1002.32	3298.00
1002.74	3313.00
1003.16	3311.00
1003.58	3271.00
1004.00	3304.00
1004.42	3288.00
1004.83	3321.00
1005.25	3290.00
1005.67	3308.00
1006.09	3270.00
1006.51	3296.00
1006.92	3301.00
1007.34	3271.00
1007.76	3283.00
1008.18	3270.00
1008.60	3305.00
1009.02	3273.00
1009.43	3259.00
1009.85	3269.00
1010.27	3266.00
1010.69	3263.00
1011.10	3266.00
1011.52	3273.00
1011.94	3249.00
1012.36	3267.00
1012.78	3269.00
1013.19	3240.00
1013.61	3199.00
1014.03	3208.00
1014.45	3220.00
1014.86	3196.00
1015.28	3206.00
1015.70	3198.00
1016.12	3194.00
1016.53	3207.00
1016.95	3199.00
1017.37	3196.00
1017.78	3167.00
1018.20	3171.00
1018.62	3128.00
1019.03	3166.00
1019.45	3171.00
1019.87	3135.00
1020.29	3142.00
1020.70	3136.00
1021.12	3150.00
1021.54	3125.00
1021.95	3124.00
1022.37	3123.00
1022.79	3134.00
1023.20	3126.00
1023.62	3094.00
1024.04	3115.00
1024.45	3123.00
1024.87	3103.00
1025.28	3080.00
1025.70	3110.00
1026.12	3091.00
1026.53	3085.00
1026.95	3079.00
1027.37	3076.00
1027.78	3097.00
1028.20	3063.00
1028.61	3067.00
1029.03	3055.00
1029.45	3051.00
1029.86	3040.00
1030.28	3039.00
1030.69	3021.00
1031.11	3020.00
1031.53	3034.00
1031.94	3043.00
1032.36	3018.00
1032.77	3005.00
1033.19	3022.00
1033.60	2999.00
1034.02	2998.00
1034.43	3019.00
1034.85	3009.00
1035.27	2985.00
1035.68	2996.00
1036.10	2985.00
1036.51	3002.00
1036.93	2963.00
1037.34	2958.00
1037.76	2964.00
1038.17	2970.00
1038.59	2957.00
1039.00	2960.00
1039.42	2963.00
1039.83	2953.00
1040.25	2953.00
1040.66	2928.00
1041.08	2935.00
1041.49	2940.00
1041.91	2916.00
1042.32	2929.00
1042.73	2914.00
1043.15	2936.00
1043.56	2908.00
1043.98	2909.00
1044.39	2911.00
1044.81	2921.00
1045.22	2901.00
1045.64	2882.00
1046.05	2906.00
1046.46	2889.00
1046.88	2886.00
1047.29	2873.00
1047.71	2881.00
1048.12	2871.00
1048.53	2870.00
1048.95	2859.00
1049.36	2859.00
1049.78	2867.00
1050.19	2861.00
1050.60	2858.00
1051.02	2843.00
1051.43	2837.00
1051.85	2849.00
1052.26	2868.00
1052.67	2850.00
1053.09	2854.00
1053.50	2827.00
1053.91	2822.00
1054.33	2824.00
1054.74	2813.00
1055.15	2813.00
1055.57	2820.00
1055.98	2821.00
1056.39	2798.00
1056.81	2797.00
1057.22	2809.00
1057.63	2798.00
1058.05	2810.00
1058.46	2788.00
1058.87	2796.00
1059.28	2782.00
1059.70	2787.00
1060.11	2793.00
1060.52	2789.00
1060.94	2793.00
1061.35	2777.00
1061.76	2773.00
1062.17	2780.00
1062.59	2774.00
1063.00	2761.00
1063.41	2778.00
1063.82	2776.00
1064.24	2759.00
1064.65	2755.00
1065.06	2754.00
1065.47	2760.00
1065.89	2748.00
1066.30	2742.00
1066.71	2764.00
1067.12	2747.00
1067.53	2735.00
1067.95	2752.00
1068.36	2743.00
1068.77	2732.00
1069.18	2737.00
1069.59	2719.00
1070.00	2729.00
1070.42	2731.00
1070.83	2726.00
1071.24	2734.00
1071.65	2726.00
1072.06	2727.00
1072.47	2719.00
1072.89	2715.00
1073.30	2723.00
1073.71	2719.00
1074.12	2710.00
1074.53	2716.00
1074.94	2705.00
1075.35	2708.00
1075.77	2702.00
1076.18	2691.00
1076.59	2708.00
1077.00	2703.00
1077.41	2701.00
1077.82	2709.00
1078.23	2711.00
1078.64	2698.00
1079.05	2689.00
1079.46	2701.00
1079.87	2694.00
1080.29	2703.00
1080.70	2679.00
1081.11	2685.00
1081.52	2683.00
1081.93	2685.00
1082.34	2680.00
1082.75	2688.00
1083.16	2689.00
1083.57	2679.00
1083.98	2687.00
1084.39	2670.00
1084.80	2678.00
1085.21	2676.00
1085.62	2666.00
1086.03	2712.00
1086.44	2664.00
1086.85	2661.00
1087.26	2668.00
1087.67	2674.00
1088.08	2665.00
1088.49	2661.00
1088.90	2671.00
1089.31	2652.00
1089.72	2661.00
1090.13	2650.00
1090.54	2658.00
1090.95	2650.00
1091.36	2645.00
1091.77	2654.00
1092.18	2654.00
1092.59	2647.00
1093.00	2645.00
1093.40	2651.00
1093.81	2657.00
1094.22	2644.00
1094.63	2650.00
1095.04	2648.00
1095.45	2639.00
1095.86	2639.00
1096.27	2639.00
1096.68	2633.00
1097.09	2638.00
1097.50	2634.00
1097.90	2639.00
1098.31	2634.00
1098.72	2633.00
1099.13	2634.00
1099.54	2622.00
1099.95	2632.00
1100.36	2628.00
1100.76	2627.00
1101.17	2630.00
1101.58	2631.00
1101.99	2624.00
1102.40	2629.00
1102.81	2623.00
1103.22	2619.00
1103.62	2617.00
1104.03	2618.00
1104.44	2623.00
1104.85	2616.00
1105.26	2622.00
1105.66	2605.00
1106.07	2619.00
1106.48	2616.00
1106.89	2618.00
1107.30	2614.00
1107.70	2601.00
1108.11	2610.00
1108.52	2606.00
1108.93	2614.00
1109.33	2615.00
1109.74	2610.00
1110.15	2612.00
1110.56	2606.00
1110.96	2610.00
1111.37	2613.00
1111.78	2602.00
1112.19	2609.00
1112.59	2603.00
1113.00	2618.00
1113.41	2607.00
1113.81	2606.00
1114.22	2601.00
1114.63	2569.00
1115.03	2574.00
1115.44	2574.00
1115.85	2576.00
>>>>>End Processed Spectral Data<<<<<
