SpectraSuite Data File
++++++++++++++++++++++++++++++++++++
Date: Thu Aug 05 10:45:31 EEST 2021
User: CanSEE
Dark Spectrum Present: No
Reference Spectrum Present: No
Number of Sampled Component Spectra: 1
Spectrometers: MAYP112785
Integration Time (usec): 10000 (MAYP112785)
Spectra Averaged: 1 (MAYP112785)
Boxcar Smoothing: 0 (MAYP112785)
Correct for Electrical Dark: No (MAYP112785)
Strobe/Lamp Enabled: No (MAYP112785)
Correct for Detector Non-linearity: No (MAYP112785)
Correct for Stray Light: No (MAYP112785)
Number of Pixels in Processed Spectrum: 2068
>>>>>Begin Processed Spectral Data<<<<<
198.35	3480.00
198.82	2487.00
199.30	2585.00
199.77	2571.00
200.24	2603.00
200.71	2596.00
201.18	2605.00
201.65	2612.00
202.13	2612.00
202.60	2617.00
203.07	2614.00
203.54	2606.00
204.01	2608.00
204.48	2607.00
204.96	2598.00
205.43	2603.00
205.90	2603.00
206.37	2600.00
206.84	2598.00
207.31	2596.00
207.78	2605.00
208.26	2614.00
208.73	2605.00
209.20	2609.00
209.67	2602.00
210.14	2608.00
210.61	2602.00
211.08	2608.00
211.56	2607.00
212.03	2606.00
212.50	2605.00
212.97	2608.00
213.44	2608.00
213.91	2602.00
214.38	2606.00
214.85	2598.00
215.33	2605.00
215.80	2599.00
216.27	2606.00
216.74	2603.00
217.21	2604.00
217.68	2608.00
218.15	2606.00
218.62	2609.00
219.09	2597.00
219.57	2606.00
220.04	2597.00
220.51	2611.00
220.98	2602.00
221.45	2615.00
221.92	2605.00
222.39	2607.00
222.86	2615.00
223.33	2602.00
223.80	2605.00
224.27	2602.00
224.74	2605.00
225.22	2609.00
225.69	2606.00
226.16	2607.00
226.63	2609.00
227.10	2608.00
227.57	2615.00
228.04	2601.00
228.51	2605.00
228.98	2613.00
229.45	2605.00
229.92	2610.00
230.39	2615.00
230.86	2607.00
231.33	2607.00
231.80	2609.00
232.27	2608.00
232.75	2602.00
233.22	2602.00
233.69	2604.00
234.16	2604.00
234.63	2609.00
235.10	2614.00
235.57	2597.00
236.04	2610.00
236.51	2607.00
236.98	2610.00
237.45	2607.00
237.92	2599.00
238.39	2604.00
238.86	2614.00
239.33	2671.00
239.80	2606.00
240.27	2614.00
240.74	2606.00
241.21	2612.00
241.68	2606.00
242.15	2603.00
242.62	2598.00
243.09	2599.00
243.56	2613.00
244.03	2607.00
244.50	2609.00
244.97	2604.00
245.44	2629.00
245.91	2611.00
246.38	2601.00
246.85	2607.00
247.32	2607.00
247.79	2610.00
248.26	2613.00
248.73	2600.00
249.20	2613.00
249.67	2605.00
250.14	2609.00
250.61	2612.00
251.08	2607.00
251.55	2608.00
252.02	2609.00
252.49	2600.00
252.96	2605.00
253.43	2609.00
253.90	2610.00
254.37	2603.00
254.84	2611.00
255.31	2607.00
255.77	2605.00
256.24	2610.00
256.71	2605.00
257.18	2610.00
257.65	2607.00
258.12	2603.00
258.59	2609.00
259.06	2608.00
259.53	2609.00
260.00	2606.00
260.47	2613.00
260.94	2606.00
261.41	2608.00
261.88	2609.00
262.35	2611.00
262.81	2606.00
263.28	2609.00
263.75	2608.00
264.22	2606.00
264.69	2605.00
265.16	2611.00
265.63	2614.00
266.10	2613.00
266.57	2600.00
267.04	2606.00
267.51	2605.00
267.97	2615.00
268.44	2609.00
268.91	2611.00
269.38	2611.00
269.85	2603.00
270.32	2607.00
270.79	2602.00
271.26	2604.00
271.73	2599.00
272.19	2603.00
272.66	2611.00
273.13	2610.00
273.60	2607.00
274.07	2611.00
274.54	2611.00
275.01	2617.00
275.48	2599.00
275.94	2610.00
276.41	2608.00
276.88	2610.00
277.35	2606.00
277.82	2606.00
278.29	2605.00
278.76	2608.00
279.22	2609.00
279.69	2608.00
280.16	2612.00
280.63	2613.00
281.10	2620.00
281.57	2614.00
282.04	2609.00
282.50	2611.00
282.97	2614.00
283.44	2599.00
283.91	2604.00
284.38	2610.00
284.85	2603.00
285.31	2609.00
285.78	2614.00
286.25	2596.00
286.72	2613.00
287.19	2612.00
287.65	2604.00
288.12	2609.00
288.59	2607.00
289.06	2609.00
289.53	2599.00
289.99	2613.00
290.46	2603.00
290.93	2609.00
291.40	2595.00
291.87	2599.00
292.33	2609.00
292.80	2611.00
293.27	2613.00
293.74	2615.00
294.21	2608.00
294.67	2600.00
295.14	2603.00
295.61	2604.00
296.08	2614.00
296.54	2605.00
297.01	2610.00
297.48	2610.00
297.95	2606.00
298.42	2609.00
298.88	2609.00
299.35	2612.00
299.82	2605.00
300.29	2607.00
300.75	2615.00
301.22	2608.00
301.69	2601.00
302.16	2609.00
302.62	2606.00
303.09	2605.00
303.56	2607.00
304.03	2613.00
304.49	2610.00
304.96	2618.00
305.43	2612.00
305.90	2615.00
306.36	2618.00
306.83	2612.00
307.30	2622.00
307.76	2620.00
308.23	2625.00
308.70	2631.00
309.17	2619.00
309.63	2629.00
310.10	2617.00
310.57	2638.00
311.03	2639.00
311.50	2659.00
311.97	2643.00
312.44	2644.00
312.90	2647.00
313.37	2651.00
313.84	2670.00
314.30	2662.00
314.77	2665.00
315.24	2674.00
315.70	2669.00
316.17	2662.00
316.64	2676.00
317.10	2682.00
317.57	2693.00
318.04	2697.00
318.50	2683.00
318.97	2688.00
319.44	2692.00
319.90	2708.00
320.37	2722.00
320.84	2725.00
321.30	2717.00
321.77	2720.00
322.24	2722.00
322.70	2713.00
323.17	2720.00
323.64	2722.00
324.10	2737.00
324.57	2748.00
325.04	2752.00
325.50	2779.00
325.97	2787.00
326.44	2803.00
326.90	2823.00
327.37	2807.00
327.84	2787.00
328.30	2793.00
328.77	2808.00
329.23	2819.00
329.70	2841.00
330.17	2833.00
330.63	2835.00
331.10	2824.00
331.56	2817.00
332.03	2821.00
332.50	2833.00
332.96	2825.00
333.43	2840.00
333.90	2842.00
334.36	2843.00
334.83	2851.00
335.29	2837.00
335.76	2844.00
336.22	2824.00
336.69	2812.00
337.16	2804.00
337.62	2821.00
338.09	2832.00
338.55	2844.00
339.02	2844.00
339.49	2866.00
339.95	2870.00
340.42	2889.00
340.88	2871.00
341.35	2886.00
341.81	2880.00
342.28	2899.00
342.75	2894.00
343.21	2894.00
343.68	2891.00
344.14	2857.00
344.61	2840.00
345.07	2890.00
345.54	2880.00
346.00	2899.00
346.47	2895.00
346.93	2883.00
347.40	2915.00
347.87	2904.00
348.33	2902.00
348.80	2915.00
349.26	2914.00
349.73	2896.00
350.19	2934.00
350.66	2953.00
351.12	2962.00
351.59	2934.00
352.05	2952.00
352.52	2924.00
352.98	2963.00
353.45	2969.00
353.91	2982.00
354.38	2993.00
354.84	2978.00
355.31	2985.00
355.77	3003.00
356.24	2962.00
356.70	2930.00
357.17	2874.00
357.63	2888.00
358.10	2912.00
358.56	2896.00
359.03	2893.00
359.49	2959.00
359.96	2994.00
360.42	2992.00
360.89	2960.00
361.35	2945.00
361.82	2956.00
362.28	2968.00
362.75	3003.00
363.21	3015.00
363.67	2992.00
364.14	3021.00
364.60	3007.00
365.07	2985.00
365.53	3037.00
366.00	3073.00
366.46	3104.00
366.93	3083.00
367.39	3103.00
367.86	3075.00
368.32	3065.00
368.78	3055.00
369.25	3093.00
369.71	3118.00
370.18	3111.00
370.64	3109.00
371.11	3068.00
371.57	3068.00
372.03	3124.00
372.50	3055.00
372.96	3058.00
373.43	3039.00
373.89	3002.00
374.35	3032.00
374.82	3028.00
375.28	3067.00
375.75	3107.00
376.21	3143.00
376.67	3147.00
377.14	3139.00
377.60	3203.00
378.07	3207.00
378.53	3201.00
378.99	3209.00
379.46	3164.00
379.92	3111.00
380.39	3153.00
380.85	3183.00
381.31	3179.00
381.78	3115.00
382.24	3079.00
382.70	3011.00
383.17	3009.00
383.63	3006.00
384.09	3036.00
384.56	3124.00
385.02	3178.00
385.48	3171.00
385.95	3125.00
386.41	3150.00
386.88	3162.00
387.34	3176.00
387.80	3194.00
388.27	3168.00
388.73	3195.00
389.19	3252.00
389.66	3299.00
390.12	3301.00
390.58	3351.00
391.05	3314.00
391.51	3331.00
391.97	3310.00
392.43	3229.00
392.90	3163.00
393.36	3067.00
393.82	3061.00
394.29	3157.00
394.75	3271.00
395.21	3334.00
395.68	3301.00
396.14	3319.00
396.60	3213.00
397.07	3175.00
397.53	3218.00
397.99	3431.00
398.45	3576.00
398.92	3646.00
399.38	3702.00
399.84	3703.00
400.31	3716.00
400.77	3754.00
401.23	3749.00
401.69	3807.00
402.16	3781.00
402.62	3837.00
403.08	3781.00
403.54	3768.00
404.01	3791.00
404.47	3825.00
404.93	3759.00
405.39	3772.00
405.86	3809.00
406.32	3769.00
406.78	3781.00
407.24	3796.00
407.71	3782.00
408.17	3846.00
408.63	3837.00
409.09	3870.00
409.56	3913.00
410.02	3839.00
410.48	3803.00
410.94	3841.00
411.40	3963.00
411.87	3990.00
412.33	3986.00
412.79	3969.00
413.25	3955.00
413.71	3963.00
414.18	4002.00
414.64	3984.00
415.10	3987.00
415.56	4010.00
416.02	4015.00
416.49	4021.00
416.95	4025.00
417.41	3998.00
417.87	3982.00
418.33	3983.00
418.80	4009.00
419.26	3994.00
419.72	4063.00
420.18	4029.00
420.64	4031.00
421.10	4091.00
421.57	4082.00
422.03	4059.00
422.49	4103.00
422.95	4053.00
423.41	4021.00
423.87	4103.00
424.34	4069.00
424.80	4087.00
425.26	4063.00
425.72	4072.00
426.18	4079.00
426.64	4020.00
427.10	4075.00
427.57	3986.00
428.03	4007.00
428.49	4083.00
428.95	3965.00
429.41	3933.00
429.87	3850.00
430.33	3844.00
430.79	3827.00
431.26	3908.00
431.72	4022.00
432.18	4226.00
432.64	4216.00
433.10	4143.00
433.56	4181.00
434.02	4162.00
434.48	4179.00
434.94	4254.00
435.40	4292.00
435.87	4336.00
436.33	4374.00
436.79	4364.00
437.25	4336.00
437.71	4334.00
438.17	4297.00
438.63	4258.00
439.09	4241.00
439.55	4315.00
440.01	4391.00
440.47	4402.00
440.93	4397.00
441.39	4487.00
441.85	4556.00
442.32	4520.00
442.78	4529.00
443.24	4569.00
443.70	4546.00
444.16	4567.00
444.62	4608.00
445.08	4642.00
445.54	4588.00
446.00	4520.00
446.46	4544.00
446.92	4628.00
447.38	4677.00
447.84	4718.00
448.30	4745.00
448.76	4716.00
449.22	4784.00
449.68	4832.00
450.14	4792.00
450.60	4880.00
451.06	4905.00
451.52	4885.00
451.98	4826.00
452.44	4761.00
452.90	4772.00
453.36	4709.00
453.82	4766.00
454.28	4784.00
454.74	4856.00
455.20	4815.00
455.66	4820.00
456.12	4879.00
456.58	4952.00
457.04	4941.00
457.50	4922.00
457.96	4959.00
458.42	4901.00
458.88	4902.00
459.34	4907.00
459.80	4891.00
460.26	4948.00
460.72	4984.00
461.18	4991.00
461.64	5038.00
462.10	5017.00
462.55	5030.00
463.01	5012.00
463.47	4940.00
463.93	4949.00
464.39	4961.00
464.85	5009.00
465.31	4959.00
465.77	4983.00
466.23	5069.00
466.69	5026.00
467.15	4940.00
467.61	4981.00
468.07	5071.00
468.52	4990.00
468.98	5040.00
469.44	4980.00
469.90	5016.00
470.36	5029.00
470.82	5025.00
471.28	5099.00
471.74	5065.00
472.20	5055.00
472.66	5124.00
473.11	5127.00
473.57	5117.00
474.03	5034.00
474.49	5129.00
474.95	5148.00
475.41	5114.00
475.87	5145.00
476.33	5117.00
476.78	5134.00
477.24	5226.00
477.70	5176.00
478.16	5213.00
478.62	5212.00
479.08	5185.00
479.54	5179.00
479.99	5248.00
480.45	5274.00
480.91	5283.00
481.37	5267.00
481.83	5361.00
482.29	5302.00
482.74	5287.00
483.20	5217.00
483.66	5251.00
484.12	5285.00
484.58	5137.00
485.04	5112.00
485.49	5010.00
485.95	4957.00
486.41	4891.00
486.87	4913.00
487.33	5080.00
487.78	5110.00
488.24	5217.00
488.70	5233.00
489.16	5241.00
489.62	5165.00
490.07	5309.00
490.53	5357.00
490.99	5252.00
491.45	5266.00
491.90	5226.00
492.36	5208.00
492.82	5222.00
493.28	5292.00
493.74	5362.00
494.19	5363.00
494.65	5381.00
495.11	5384.00
495.57	5379.00
496.02	5361.00
496.48	5399.00
496.94	5387.00
497.40	5290.00
497.85	5329.00
498.31	5292.00
498.77	5290.00
499.23	5327.00
499.68	5307.00
500.14	5311.00
500.60	5285.00
501.06	5235.00
501.51	5261.00
501.97	5260.00
502.43	5338.00
502.88	5235.00
503.34	5309.00
503.80	5334.00
504.26	5347.00
504.71	5316.00
505.17	5389.00
505.63	5428.00
506.08	5463.00
506.54	5427.00
507.00	5392.00
507.45	5331.00
507.91	5360.00
508.37	5441.00
508.82	5364.00
509.28	5454.00
509.74	5489.00
510.19	5414.00
510.65	5452.00
511.11	5521.00
511.56	5427.00
512.02	5436.00
512.48	5453.00
512.93	5411.00
513.39	5405.00
513.85	5399.00
514.30	5384.00
514.76	5378.00
515.22	5444.00
515.67	5375.00
516.13	5293.00
516.59	5253.00
517.04	5218.00
517.50	5128.00
517.95	5198.00
518.41	5288.00
518.87	5304.00
519.32	5364.00
519.78	5431.00
520.24	5414.00
520.69	5521.00
521.15	5458.00
521.60	5471.00
522.06	5534.00
522.52	5471.00
522.97	5438.00
523.43	5529.00
523.88	5609.00
524.34	5564.00
524.80	5634.00
525.25	5597.00
525.71	5522.00
526.16	5502.00
526.62	5406.00
527.07	5378.00
527.53	5381.00
527.99	5462.00
528.44	5605.00
528.90	5638.00
529.35	5679.00
529.81	5697.00
530.26	5677.00
530.72	5683.00
531.17	5689.00
531.63	5707.00
532.09	5642.00
532.54	5648.00
533.00	5549.00
533.45	5571.00
533.91	5629.00
534.36	5643.00
534.82	5696.00
535.27	5708.00
535.73	5726.00
536.18	5735.00
536.64	5706.00
537.09	5670.00
537.55	5661.00
538.00	5698.00
538.46	5661.00
538.91	5623.00
539.37	5649.00
539.82	5667.00
540.28	5549.00
540.73	5607.00
541.19	5662.00
541.64	5653.00
542.10	5736.00
542.55	5710.00
543.01	5614.00
543.46	5688.00
543.92	5666.00
544.37	5742.00
544.83	5737.00
545.28	5703.00
545.74	5747.00
546.19	5757.00
546.64	5782.00
547.10	5673.00
547.55	5722.00
548.01	5716.00
548.46	5703.00
548.92	5759.00
549.37	5761.00
549.83	5782.00
550.28	5745.00
550.73	5792.00
551.19	5752.00
551.64	5839.00
552.10	5775.00
552.55	5747.00
553.00	5752.00
553.46	5803.00
553.91	5869.00
554.37	5863.00
554.82	5842.00
555.28	5819.00
555.73	5807.00
556.18	5850.00
556.64	5703.00
557.09	5725.00
557.54	5710.00
558.00	5721.00
558.45	5757.00
558.91	5719.00
559.36	5672.00
559.81	5723.00
560.27	5736.00
560.72	5734.00
561.17	5786.00
561.63	5793.00
562.08	5732.00
562.54	5840.00
562.99	5749.00
563.44	5832.00
563.90	5808.00
564.35	5789.00
564.80	5757.00
565.26	5737.00
565.71	5708.00
566.16	5797.00
566.62	5781.00
567.07	5785.00
567.52	5794.00
567.98	5759.00
568.43	5723.00
568.88	5758.00
569.34	5708.00
569.79	5716.00
570.24	5653.00
570.69	5687.00
571.15	5673.00
571.60	5755.00
572.05	5786.00
572.51	5754.00
572.96	5783.00
573.41	5835.00
573.86	5844.00
574.32	5822.00
574.77	5779.00
575.22	5731.00
575.68	5705.00
576.13	5787.00
576.58	5773.00
577.03	5816.00
577.49	5788.00
577.94	5742.00
578.39	5810.00
578.84	5733.00
579.30	5749.00
579.75	5814.00
580.20	5862.00
580.65	5870.00
581.11	5873.00
581.56	5915.00
582.01	5887.00
582.46	5930.00
582.92	5893.00
583.37	5930.00
583.82	5951.00
584.27	5977.00
584.72	5924.00
585.18	5847.00
585.63	5843.00
586.08	5845.00
586.53	5838.00
586.98	5880.00
587.44	5915.00
587.89	5842.00
588.34	5810.00
588.79	5581.00
589.24	5595.00
589.70	5541.00
590.15	5583.00
590.60	5693.00
591.05	5708.00
591.50	5789.00
591.96	5796.00
592.41	5741.00
592.86	5792.00
593.31	5770.00
593.76	5828.00
594.21	5839.00
594.66	5777.00
595.12	5692.00
595.57	5843.00
596.02	5723.00
596.47	5787.00
596.92	5815.00
597.37	5829.00
597.82	5783.00
598.28	5806.00
598.73	5848.00
599.18	5845.00
599.63	5843.00
600.08	5831.00
600.53	5832.00
600.98	5809.00
601.43	5781.00
601.88	5801.00
602.34	5818.00
602.79	5753.00
603.24	5904.00
603.69	5854.00
604.14	5888.00
604.59	5993.00
605.04	5928.00
605.49	5873.00
605.94	5889.00
606.39	5852.00
606.84	5948.00
607.30	5885.00
607.75	5900.00
608.20	5877.00
608.65	5850.00
609.10	5871.00
609.55	5910.00
610.00	5860.00
610.45	5844.00
610.90	5792.00
611.35	5942.00
611.80	5901.00
612.25	5840.00
612.70	5854.00
613.15	5803.00
613.60	5789.00
614.05	5775.00
614.50	5825.00
614.95	5780.00
615.40	5828.00
615.85	5802.00
616.30	5744.00
616.75	5744.00
617.20	5745.00
617.65	5755.00
618.10	5856.00
618.55	5833.00
619.00	5935.00
619.45	5852.00
619.90	5893.00
620.35	5884.00
620.80	5924.00
621.25	5968.00
621.70	5866.00
622.15	5879.00
622.60	5850.00
623.05	5847.00
623.50	5816.00
623.95	5826.00
624.40	5706.00
624.85	5780.00
625.30	5669.00
625.75	5784.00
626.20	5830.00
626.65	5834.00
627.10	5816.00
627.55	5762.00
627.99	5729.00
628.44	5732.00
628.89	5733.00
629.34	5764.00
629.79	5765.00
630.24	5681.00
630.69	5831.00
631.14	5774.00
631.59	5734.00
632.04	5819.00
632.49	5779.00
632.94	5781.00
633.38	5849.00
633.83	5774.00
634.28	5808.00
634.73	5838.00
635.18	5903.00
635.63	5897.00
636.08	5876.00
636.53	5867.00
636.97	5918.00
637.42	5925.00
637.87	5970.00
638.32	5963.00
638.77	5934.00
639.22	5981.00
639.67	5939.00
640.11	5885.00
640.56	5891.00
641.01	5900.00
641.46	5897.00
641.91	5921.00
642.36	5903.00
642.81	5932.00
643.25	6018.00
643.70	5967.00
644.15	5935.00
644.60	5953.00
645.05	5877.00
645.49	5904.00
645.94	5853.00
646.39	5841.00
646.84	5813.00
647.29	5825.00
647.73	5844.00
648.18	5759.00
648.63	5800.00
649.08	5780.00
649.53	5753.00
649.97	5773.00
650.42	5757.00
650.87	5847.00
651.32	5840.00
651.77	5782.00
652.21	5860.00
652.66	5818.00
653.11	5799.00
653.56	5863.00
654.00	5919.00
654.45	5805.00
654.90	5826.00
655.35	5749.00
655.79	5591.00
656.24	5348.00
656.69	5346.00
657.14	5436.00
657.58	5652.00
658.03	5793.00
658.48	5867.00
658.92	5865.00
659.37	5845.00
659.82	5837.00
660.27	5913.00
660.71	5860.00
661.16	5935.00
661.61	5989.00
662.05	5943.00
662.50	5871.00
662.95	5905.00
663.39	5876.00
663.84	5849.00
664.29	5843.00
664.74	5934.00
665.18	5927.00
665.63	5917.00
666.08	5931.00
666.52	5842.00
666.97	5850.00
667.42	5910.00
667.86	5875.00
668.31	5945.00
668.76	5872.00
669.20	5880.00
669.65	5876.00
670.09	5845.00
670.54	5847.00
670.99	5891.00
671.43	5814.00
671.88	5819.00
672.33	5814.00
672.77	5893.00
673.22	5895.00
673.66	5838.00
674.11	5873.00
674.56	5803.00
675.00	5818.00
675.45	5857.00
675.90	5835.00
676.34	5929.00
676.79	5816.00
677.23	5830.00
677.68	5833.00
678.12	5875.00
678.57	5782.00
679.02	5847.00
679.46	5876.00
679.91	5869.00
680.35	5809.00
680.80	5876.00
681.25	5829.00
681.69	5843.00
682.14	5866.00
682.58	5846.00
683.03	5806.00
683.47	5781.00
683.92	5797.00
684.36	5726.00
684.81	5720.00
685.25	5795.00
685.70	5707.00
686.15	5657.00
686.59	5394.00
687.04	5087.00
687.48	4877.00
687.93	4913.00
688.37	5257.00
688.82	5267.00
689.26	5222.00
689.71	5198.00
690.15	5231.00
690.60	5344.00
691.04	5414.00
691.49	5429.00
691.93	5458.00
692.38	5486.00
692.82	5510.00
693.27	5500.00
693.71	5496.00
694.16	5410.00
694.60	5359.00
695.04	5521.00
695.49	5470.00
695.93	5464.00
696.38	5559.00
696.82	5605.00
697.27	5685.00
697.71	5622.00
698.16	5581.00
698.60	5572.00
699.04	5540.00
699.49	5502.00
699.93	5520.00
700.38	5516.00
700.82	5502.00
701.27	5508.00
701.71	5483.00
702.15	5490.00
702.60	5398.00
703.04	5475.00
703.49	5464.00
703.93	5516.00
704.37	5554.00
704.82	5540.00
705.26	5579.00
705.71	5557.00
706.15	5561.00
706.59	5595.00
707.04	5563.00
707.48	5548.00
707.93	5572.00
708.37	5523.00
708.81	5579.00
709.26	5516.00
709.70	5520.00
710.14	5537.00
710.59	5558.00
711.03	5534.00
711.47	5524.00
711.92	5503.00
712.36	5562.00
712.80	5558.00
713.25	5500.00
713.69	5516.00
714.13	5498.00
714.58	5491.00
715.02	5460.00
715.46	5373.00
715.91	5447.00
716.35	5303.00
716.79	5147.00
717.24	4999.00
717.68	4874.00
718.12	4864.00
718.57	4753.00
719.01	4707.00
719.45	4698.00
719.89	4698.00
720.34	4690.00
720.78	4765.00
721.22	4966.00
721.66	5102.00
722.11	5210.00
722.55	5184.00
722.99	5139.00
723.44	4954.00
723.88	4896.00
724.32	4827.00
724.76	4801.00
725.21	4811.00
725.65	4857.00
726.09	4882.00
726.53	4930.00
726.97	4931.00
727.42	4905.00
727.86	4801.00
728.30	4892.00
728.74	5005.00
729.19	4836.00
729.63	4890.00
730.07	4896.00
730.51	4914.00
730.95	4912.00
731.40	4962.00
731.84	4953.00
732.28	5073.00
732.72	5167.00
733.16	5167.00
733.61	5185.00
734.05	5304.00
734.49	5235.00
734.93	5210.00
735.37	5213.00
735.81	5214.00
736.26	5173.00
736.70	5222.00
737.14	5198.00
737.58	5270.00
738.02	5252.00
738.46	5190.00
738.90	5139.00
739.35	5117.00
739.79	5235.00
740.23	5195.00
740.67	5200.00
741.11	5234.00
741.55	5211.00
741.99	5170.00
742.44	5190.00
742.88	5257.00
743.32	5280.00
743.76	5281.00
744.20	5223.00
744.64	5220.00
745.08	5216.00
745.52	5330.00
745.96	5282.00
746.40	5270.00
746.84	5287.00
747.29	5274.00
747.73	5278.00
748.17	5282.00
748.61	5268.00
749.05	5307.00
749.49	5256.00
749.93	5299.00
750.37	5297.00
750.81	5274.00
751.25	5261.00
751.69	5261.00
752.13	5272.00
752.57	5320.00
753.01	5257.00
753.45	5242.00
753.89	5234.00
754.33	5271.00
754.77	5311.00
755.21	5221.00
755.65	5273.00
756.09	5273.00
756.53	5294.00
756.97	5253.00
757.41	5315.00
757.85	5225.00
758.29	5170.00
758.73	5102.00
759.17	4969.00
759.61	4390.00
760.05	3613.00
760.49	3187.00
760.93	3074.00
761.37	3269.00
761.81	3717.00
762.25	3941.00
762.69	3764.00
763.13	3620.00
763.57	3650.00
764.01	3718.00
764.45	3857.00
764.89	4015.00
765.33	4180.00
765.77	4308.00
766.21	4454.00
766.65	4613.00
767.09	4813.00
767.53	4922.00
767.96	4986.00
768.40	5036.00
768.84	5028.00
769.28	5027.00
769.72	5099.00
770.16	5112.00
770.60	5166.00
771.04	5172.00
771.48	5122.00
771.92	5173.00
772.35	5192.00
772.79	5153.00
773.23	5167.00
773.67	5215.00
774.11	5151.00
774.55	5119.00
774.99	5063.00
775.43	5011.00
775.86	5124.00
776.30	5089.00
776.74	5118.00
777.18	5123.00
777.62	5144.00
778.06	5113.00
778.50	5065.00
778.93	5113.00
779.37	5011.00
779.81	5033.00
780.25	5040.00
780.69	5022.00
781.12	5019.00
781.56	5110.00
782.00	5044.00
782.44	5064.00
782.88	5061.00
783.32	5058.00
783.75	5035.00
784.19	5059.00
784.63	5021.00
785.07	5025.00
785.50	5042.00
785.94	4975.00
786.38	4934.00
786.82	4986.00
787.26	4920.00
787.69	4881.00
788.13	4946.00
788.57	4947.00
789.01	4940.00
789.44	4919.00
789.88	4861.00
790.32	4852.00
790.76	4840.00
791.19	4844.00
791.63	4806.00
792.07	4834.00
792.51	4758.00
792.94	4837.00
793.38	4827.00
793.82	4769.00
794.25	4852.00
794.69	4808.00
795.13	4797.00
795.56	4844.00
796.00	4788.00
796.44	4746.00
796.88	4789.00
797.31	4768.00
797.75	4795.00
798.19	4732.00
798.62	4786.00
799.06	4784.00
799.50	4787.00
799.93	4732.00
800.37	4728.00
800.81	4764.00
801.24	4767.00
801.68	4747.00
802.12	4774.00
802.55	4663.00
802.99	4656.00
803.43	4679.00
803.86	4704.00
804.30	4720.00
804.73	4627.00
805.17	4674.00
805.61	4711.00
806.04	4740.00
806.48	4695.00
806.92	4751.00
807.35	4668.00
807.79	4692.00
808.22	4665.00
808.66	4610.00
809.10	4618.00
809.53	4567.00
809.97	4649.00
810.40	4610.00
810.84	4643.00
811.27	4534.00
811.71	4553.00
812.15	4547.00
812.58	4568.00
813.02	4434.00
813.45	4337.00
813.89	4333.00
814.32	4309.00
814.76	4232.00
815.19	4192.00
815.63	4156.00
816.07	4157.00
816.50	4066.00
816.94	4012.00
817.37	4165.00
817.81	4112.00
818.24	4082.00
818.68	4181.00
819.11	4207.00
819.55	4204.00
819.98	4141.00
820.42	4305.00
820.85	4384.00
821.29	4338.00
821.72	4336.00
822.16	4227.00
822.59	4068.00
823.03	3823.00
823.46	3993.00
823.90	4209.00
824.33	4277.00
824.77	4333.00
825.20	4388.00
825.63	4318.00
826.07	4236.00
826.50	4379.00
826.94	4347.00
827.37	4238.00
827.81	4137.00
828.24	4203.00
828.68	4196.00
829.11	4203.00
829.54	4204.00
829.98	4227.00
830.41	4222.00
830.85	4234.00
831.28	4292.00
831.71	4256.00
832.15	4227.00
832.58	4293.00
833.02	4333.00
833.45	4237.00
833.88	4299.00
834.32	4313.00
834.75	4306.00
835.19	4351.00
835.62	4307.00
836.05	4312.00
836.49	4268.00
836.92	4318.00
837.35	4355.00
837.79	4385.00
838.22	4361.00
838.66	4402.00
839.09	4386.00
839.52	4477.00
839.96	4471.00
840.39	4396.00
840.82	4385.00
841.26	4384.00
841.69	4365.00
842.12	4387.00
842.56	4366.00
842.99	4345.00
843.42	4342.00
843.85	4347.00
844.29	4376.00
844.72	4417.00
845.15	4390.00
845.59	4430.00
846.02	4449.00
846.45	4403.00
846.88	4395.00
847.32	4386.00
847.75	4371.00
848.18	4338.00
848.62	4353.00
849.05	4318.00
849.48	4268.00
849.91	4144.00
850.35	4227.00
850.78	4276.00
851.21	4313.00
851.64	4318.00
852.08	4358.00
852.51	4370.00
852.94	4378.00
853.37	4292.00
853.80	4120.00
854.24	3964.00
854.67	4111.00
855.10	4213.00
855.53	4267.00
855.97	4285.00
856.40	4314.00
856.83	4319.00
857.26	4331.00
857.69	4426.00
858.13	4322.00
858.56	4315.00
858.99	4350.00
859.42	4388.00
859.85	4333.00
860.28	4370.00
860.72	4381.00
861.15	4347.00
861.58	4329.00
862.01	4335.00
862.44	4252.00
862.87	4293.00
863.30	4263.00
863.74	4271.00
864.17	4330.00
864.60	4293.00
865.03	4263.00
865.46	4258.00
865.89	4096.00
866.32	4022.00
866.75	4187.00
867.19	4252.00
867.62	4304.00
868.05	4287.00
868.48	4295.00
868.91	4246.00
869.34	4265.00
869.77	4255.00
870.20	4254.00
870.63	4260.00
871.06	4226.00
871.49	4202.00
871.93	4253.00
872.36	4278.00
872.79	4234.00
873.22	4220.00
873.65	4289.00
874.08	4281.00
874.51	4240.00
874.94	4229.00
875.37	4251.00
875.80	4200.00
876.23	4268.00
876.66	4201.00
877.09	4200.00
877.52	4216.00
877.95	4171.00
878.38	4228.00
878.81	4157.00
879.24	4182.00
879.67	4167.00
880.10	4127.00
880.53	4105.00
880.96	4130.00
881.39	4219.00
881.82	4238.00
882.25	4225.00
882.68	4233.00
883.11	4230.00
883.54	4204.00
883.97	4249.00
884.40	4194.00
884.83	4199.00
885.26	4187.00
885.69	4200.00
886.12	4076.00
886.55	4109.00
886.98	4175.00
887.40	4155.00
887.83	4159.00
888.26	4198.00
888.69	4184.00
889.12	4182.00
889.55	4171.00
889.98	4198.00
890.41	4145.00
890.84	4176.00
891.27	4170.00
891.70	4121.00
892.12	4156.00
892.55	4130.00
892.98	4030.00
893.41	4079.00
893.84	4017.00
894.27	3989.00
894.70	3904.00
895.13	3877.00
895.55	3926.00
895.98	3865.00
896.41	3767.00
896.84	3797.00
897.27	3811.00
897.70	3819.00
898.13	3798.00
898.55	3610.00
898.98	3598.00
899.41	3808.00
899.84	3735.00
900.27	3686.00
900.70	3698.00
901.12	3685.00
901.55	3703.00
901.98	3739.00
902.41	3711.00
902.84	3777.00
903.26	3932.00
903.69	3916.00
904.12	3943.00
904.55	3927.00
904.97	3904.00
905.40	3896.00
905.83	3814.00
906.26	3759.00
906.69	3700.00
907.11	3693.00
907.54	3690.00
907.97	3716.00
908.40	3666.00
908.82	3677.00
909.25	3633.00
909.68	3652.00
910.10	3616.00
910.53	3685.00
910.96	3762.00
911.39	3675.00
911.81	3713.00
912.24	3686.00
912.67	3601.00
913.09	3524.00
913.52	3589.00
913.95	3665.00
914.38	3693.00
914.80	3599.00
915.23	3509.00
915.66	3630.00
916.08	3739.00
916.51	3701.00
916.94	3600.00
917.36	3556.00
917.79	3625.00
918.22	3687.00
918.64	3727.00
919.07	3728.00
919.50	3747.00
919.92	3774.00
920.35	3738.00
920.78	3710.00
921.20	3649.00
921.63	3714.00
922.05	3680.00
922.48	3668.00
922.91	3684.00
923.33	3595.00
923.76	3594.00
924.18	3630.00
924.61	3647.00
925.04	3650.00
925.46	3612.00
925.89	3623.00
926.31	3663.00
926.74	3593.00
927.17	3513.00
927.59	3388.00
928.02	3367.00
928.44	3346.00
928.87	3326.00
929.29	3235.00
929.72	3230.00
930.15	3181.00
930.57	3139.00
931.00	3073.00
931.42	3020.00
931.85	2961.00
932.27	2965.00
932.70	2925.00
933.12	2868.00
933.55	2837.00
933.97	2849.00
934.40	2939.00
934.82	2932.00
935.25	2886.00
935.67	2914.00
936.10	2880.00
936.52	2839.00
936.95	2869.00
937.37	2830.00
937.80	2871.00
938.22	2968.00
938.65	3010.00
939.07	3070.00
939.50	2991.00
939.92	2954.00
940.35	2917.00
940.77	2922.00
941.19	2929.00
941.62	2916.00
942.04	2888.00
942.47	2855.00
942.89	2894.00
943.32	2849.00
943.74	2814.00
944.16	2890.00
944.59	2890.00
945.01	2845.00
945.44	2839.00
945.86	2887.00
946.29	2877.00
946.71	2891.00
947.13	2902.00
947.56	2887.00
947.98	2957.00
948.40	2972.00
948.83	2891.00
949.25	2862.00
949.68	2910.00
950.10	3002.00
950.52	3050.00
950.95	2979.00
951.37	2897.00
951.79	2904.00
952.22	2938.00
952.64	3012.00
953.06	3005.00
953.49	2986.00
953.91	2948.00
954.33	2991.00
954.76	2934.00
955.18	3002.00
955.60	2992.00
956.03	2965.00
956.45	3038.00
956.87	3112.00
957.30	3082.00
957.72	3057.00
958.14	2996.00
958.56	2986.00
958.99	3046.00
959.41	3079.00
959.83	3087.00
960.26	3102.00
960.68	3147.00
961.10	3099.00
961.52	3088.00
961.95	3106.00
962.37	3164.00
962.79	3157.00
963.21	3136.00
963.64	3154.00
964.06	3164.00
964.48	3218.00
964.90	3195.00
965.32	3161.00
965.75	3179.00
966.17	3196.00
966.59	3284.00
967.01	3348.00
967.44	3312.00
967.86	3322.00
968.28	3345.00
968.70	3355.00
969.12	3363.00
969.54	3360.00
969.97	3380.00
970.39	3387.00
970.81	3351.00
971.23	3362.00
971.65	3334.00
972.07	3320.00
972.50	3280.00
972.92	3249.00
973.34	3282.00
973.76	3340.00
974.18	3275.00
974.60	3264.00
975.02	3273.00
975.45	3231.00
975.87	3281.00
976.29	3333.00
976.71	3295.00
977.13	3289.00
977.55	3289.00
977.97	3317.00
978.39	3279.00
978.81	3301.00
979.24	3306.00
979.66	3348.00
980.08	3350.00
980.50	3356.00
980.92	3377.00
981.34	3353.00
981.76	3295.00
982.18	3365.00
982.60	3366.00
983.02	3367.00
983.44	3358.00
983.86	3342.00
984.28	3348.00
984.70	3365.00
985.12	3353.00
985.54	3373.00
985.96	3333.00
986.38	3305.00
986.80	3341.00
987.23	3356.00
987.65	3324.00
988.07	3310.00
988.49	3357.00
988.91	3326.00
989.33	3356.00
989.74	3331.00
990.16	3317.00
990.58	3335.00
991.00	3331.00
991.42	3308.00
991.84	3315.00
992.26	3323.00
992.68	3315.00
993.10	3343.00
993.52	3325.00
993.94	3341.00
994.36	3345.00
994.78	3299.00
995.20	3313.00
995.62	3330.00
996.04	3312.00
996.46	3307.00
996.88	3328.00
997.30	3339.00
997.71	3330.00
998.13	3340.00
998.55	3346.00
998.97	3300.00
999.39	3358.00
999.81	3362.00
1000.23	3310.00
1000.65	3312.00
1001.07	3311.00
1001.49	3321.00
1001.90	3345.00
1002.32	3331.00
1002.74	3298.00
1003.16	3303.00
1003.58	3306.00
1004.00	3272.00
1004.42	3286.00
1004.83	3303.00
1005.25	3265.00
1005.67	3287.00
1006.09	3293.00
1006.51	3282.00
1006.92	3292.00
1007.34	3291.00
1007.76	3245.00
1008.18	3277.00
1008.60	3290.00
1009.02	3283.00
1009.43	3295.00
1009.85	3290.00
1010.27	3271.00
1010.69	3293.00
1011.10	3275.00
1011.52	3245.00
1011.94	3260.00
1012.36	3227.00
1012.78	3219.00
1013.19	3235.00
1013.61	3250.00
1014.03	3244.00
1014.45	3200.00
1014.86	3206.00
1015.28	3232.00
1015.70	3184.00
1016.12	3210.00
1016.53	3202.00
1016.95	3209.00
1017.37	3180.00
1017.78	3199.00
1018.20	3168.00
1018.62	3156.00
1019.03	3139.00
1019.45	3179.00
1019.87	3161.00
1020.29	3141.00
1020.70	3140.00
1021.12	3144.00
1021.54	3149.00
1021.95	3134.00
1022.37	3138.00
1022.79	3143.00
1023.20	3134.00
1023.62	3117.00
1024.04	3108.00
1024.45	3100.00
1024.87	3092.00
1025.28	3110.00
1025.70	3080.00
1026.12	3070.00
1026.53	3081.00
1026.95	3046.00
1027.37	3073.00
1027.78	3059.00
1028.20	3061.00
1028.61	3073.00
1029.03	3053.00
1029.45	3048.00
1029.86	3061.00
1030.28	3034.00
1030.69	3043.00
1031.11	3040.00
1031.53	3017.00
1031.94	3012.00
1032.36	3020.00
1032.77	3001.00
1033.19	3014.00
1033.60	3011.00
1034.02	3001.00
1034.43	3003.00
1034.85	3009.00
1035.27	2991.00
1035.68	3007.00
1036.10	2992.00
1036.51	2979.00
1036.93	2966.00
1037.34	2958.00
1037.76	2949.00
1038.17	2957.00
1038.59	2939.00
1039.00	2977.00
1039.42	2948.00
1039.83	2962.00
1040.25	2957.00
1040.66	2958.00
1041.08	2962.00
1041.49	2940.00
1041.91	2947.00
1042.32	2914.00
1042.73	2932.00
1043.15	2912.00
1043.56	2916.00
1043.98	2904.00
1044.39	2879.00
1044.81	2912.00
1045.22	2908.00
1045.64	2898.00
1046.05	2889.00
1046.46	2892.00
1046.88	2887.00
1047.29	2882.00
1047.71	2896.00
1048.12	2865.00
1048.53	2900.00
1048.95	2865.00
1049.36	2862.00
1049.78	2859.00
1050.19	2862.00
1050.60	2865.00
1051.02	2837.00
1051.43	2844.00
1051.85	2840.00
1052.26	2837.00
1052.67	2849.00
1053.09	2833.00
1053.50	2833.00
1053.91	2827.00
1054.33	2818.00
1054.74	2820.00
1055.15	2821.00
1055.57	2808.00
1055.98	2812.00
1056.39	2801.00
1056.81	2808.00
1057.22	2802.00
1057.63	2788.00
1058.05	2792.00
1058.46	2797.00
1058.87	2797.00
1059.28	2772.00
1059.70	2793.00
1060.11	2796.00
1060.52	2771.00
1060.94	2789.00
1061.35	2779.00
1061.76	2764.00
1062.17	2766.00
1062.59	2766.00
1063.00	2772.00
1063.41	2755.00
1063.82	2767.00
1064.24	2764.00
1064.65	2755.00
1065.06	2755.00
1065.47	2757.00
1065.89	2769.00
1066.30	2752.00
1066.71	2741.00
1067.12	2749.00
1067.53	2744.00
1067.95	2743.00
1068.36	2727.00
1068.77	2748.00
1069.18	2741.00
1069.59	2734.00
1070.00	2731.00
1070.42	2731.00
1070.83	2714.00
1071.24	2739.00
1071.65	2720.00
1072.06	2718.00
1072.47	2708.00
1072.89	2710.00
1073.30	2715.00
1073.71	2724.00
1074.12	2711.00
1074.53	2707.00
1074.94	2713.00
1075.35	2715.00
1075.77	2698.00
1076.18	2710.00
1076.59	2696.00
1077.00	2700.00
1077.41	2689.00
1077.82	2705.00
1078.23	2690.00
1078.64	2689.00
1079.05	2692.00
1079.46	2696.00
1079.87	2693.00
1080.29	2689.00
1080.70	2683.00
1081.11	2694.00
1081.52	2680.00
1081.93	2678.00
1082.34	2674.00
1082.75	2675.00
1083.16	2686.00
1083.57	2680.00
1083.98	2670.00
1084.39	2672.00
1084.80	2669.00
1085.21	2676.00
1085.62	2664.00
1086.03	2697.00
1086.44	2675.00
1086.85	2674.00
1087.26	2666.00
1087.67	2655.00
1088.08	2670.00
1088.49	2673.00
1088.90	2663.00
1089.31	2667.00
1089.72	2655.00
1090.13	2656.00
1090.54	2669.00
1090.95	2656.00
1091.36	2648.00
1091.77	2646.00
1092.18	2657.00
1092.59	2655.00
1093.00	2648.00
1093.40	2645.00
1093.81	2647.00
1094.22	2645.00
1094.63	2646.00
1095.04	2637.00
1095.45	2648.00
1095.86	2642.00
1096.27	2638.00
1096.68	2642.00
1097.09	2643.00
1097.50	2632.00
1097.90	2628.00
1098.31	2631.00
1098.72	2634.00
1099.13	2628.00
1099.54	2627.00
1099.95	2623.00
1100.36	2620.00
1100.76	2632.00
1101.17	2626.00
1101.58	2621.00
1101.99	2624.00
1102.40	2628.00
1102.81	2619.00
1103.22	2633.00
1103.62	2622.00
1104.03	2625.00
1104.44	2622.00
1104.85	2618.00
1105.26	2617.00
1105.66	2618.00
1106.07	2611.00
1106.48	2610.00
1106.89	2615.00
1107.30	2611.00
1107.70	2616.00
1108.11	2612.00
1108.52	2614.00
1108.93	2607.00
1109.33	2620.00
1109.74	2615.00
1110.15	2617.00
1110.56	2605.00
1110.96	2606.00
1111.37	2614.00
1111.78	2610.00
1112.19	2613.00
1112.59	2610.00
1113.00	2612.00
1113.41	2600.00
1113.81	2597.00
1114.22	2608.00
1114.63	2577.00
1115.03	2571.00
1115.44	2576.00
1115.85	2576.00
>>>>>End Processed Spectral Data<<<<<
