SpectraSuite Data File
++++++++++++++++++++++++++++++++++++
Date: Thu Aug 05 09:52:32 EEST 2021
User: CanSEE
Dark Spectrum Present: No
Reference Spectrum Present: No
Number of Sampled Component Spectra: 1
Spectrometers: MAYP112785
Integration Time (usec): 10000 (MAYP112785)
Spectra Averaged: 1 (MAYP112785)
Boxcar Smoothing: 0 (MAYP112785)
Correct for Electrical Dark: No (MAYP112785)
Strobe/Lamp Enabled: No (MAYP112785)
Correct for Detector Non-linearity: No (MAYP112785)
Correct for Stray Light: No (MAYP112785)
Number of Pixels in Processed Spectrum: 2068
>>>>>Begin Processed Spectral Data<<<<<
198.35	3433.00
198.82	2471.00
199.30	2575.00
199.77	2556.00
200.24	2579.00
200.71	2580.00
201.18	2578.00
201.65	2587.00
202.13	2584.00
202.60	2586.00
203.07	2582.00
203.54	2585.00
204.01	2580.00
204.48	2575.00
204.96	2585.00
205.43	2588.00
205.90	2579.00
206.37	2581.00
206.84	2573.00
207.31	2582.00
207.78	2582.00
208.26	2576.00
208.73	2587.00
209.20	2585.00
209.67	2582.00
210.14	2584.00
210.61	2592.00
211.08	2578.00
211.56	2582.00
212.03	2579.00
212.50	2579.00
212.97	2579.00
213.44	2583.00
213.91	2580.00
214.38	2576.00
214.85	2580.00
215.33	2582.00
215.80	2581.00
216.27	2579.00
216.74	2584.00
217.21	2582.00
217.68	2586.00
218.15	2577.00
218.62	2583.00
219.09	2586.00
219.57	2588.00
220.04	2591.00
220.51	2585.00
220.98	2583.00
221.45	2583.00
221.92	2573.00
222.39	2582.00
222.86	2579.00
223.33	2582.00
223.80	2581.00
224.27	2585.00
224.74	2582.00
225.22	2583.00
225.69	2582.00
226.16	2580.00
226.63	2579.00
227.10	2585.00
227.57	2577.00
228.04	2576.00
228.51	2575.00
228.98	2586.00
229.45	2581.00
229.92	2580.00
230.39	2576.00
230.86	2585.00
231.33	2583.00
231.80	2576.00
232.27	2584.00
232.75	2586.00
233.22	2581.00
233.69	2589.00
234.16	2582.00
234.63	2592.00
235.10	2577.00
235.57	2582.00
236.04	2577.00
236.51	2575.00
236.98	2585.00
237.45	2577.00
237.92	2585.00
238.39	2574.00
238.86	2581.00
239.33	2622.00
239.80	2587.00
240.27	2580.00
240.74	2580.00
241.21	2581.00
241.68	2583.00
242.15	2579.00
242.62	2576.00
243.09	2586.00
243.56	2575.00
244.03	2581.00
244.50	2585.00
244.97	2579.00
245.44	2593.00
245.91	2589.00
246.38	2583.00
246.85	2586.00
247.32	2584.00
247.79	2588.00
248.26	2586.00
248.73	2579.00
249.20	2581.00
249.67	2577.00
250.14	2579.00
250.61	2588.00
251.08	2577.00
251.55	2580.00
252.02	2577.00
252.49	2576.00
252.96	2575.00
253.43	2583.00
253.90	2582.00
254.37	2583.00
254.84	2589.00
255.31	2584.00
255.77	2578.00
256.24	2580.00
256.71	2585.00
257.18	2583.00
257.65	2581.00
258.12	2585.00
258.59	2589.00
259.06	2589.00
259.53	2583.00
260.00	2581.00
260.47	2590.00
260.94	2582.00
261.41	2583.00
261.88	2578.00
262.35	2590.00
262.81	2582.00
263.28	2582.00
263.75	2583.00
264.22	2576.00
264.69	2582.00
265.16	2584.00
265.63	2581.00
266.10	2583.00
266.57	2582.00
267.04	2582.00
267.51	2583.00
267.97	2584.00
268.44	2581.00
268.91	2579.00
269.38	2589.00
269.85	2577.00
270.32	2586.00
270.79	2585.00
271.26	2578.00
271.73	2583.00
272.19	2580.00
272.66	2582.00
273.13	2583.00
273.60	2582.00
274.07	2578.00
274.54	2586.00
275.01	2583.00
275.48	2580.00
275.94	2583.00
276.41	2583.00
276.88	2586.00
277.35	2582.00
277.82	2581.00
278.29	2579.00
278.76	2587.00
279.22	2584.00
279.69	2591.00
280.16	2586.00
280.63	2585.00
281.10	2581.00
281.57	2576.00
282.04	2582.00
282.50	2590.00
282.97	2584.00
283.44	2581.00
283.91	2587.00
284.38	2578.00
284.85	2585.00
285.31	2582.00
285.78	2577.00
286.25	2582.00
286.72	2576.00
287.19	2578.00
287.65	2584.00
288.12	2583.00
288.59	2584.00
289.06	2584.00
289.53	2583.00
289.99	2577.00
290.46	2578.00
290.93	2578.00
291.40	2572.00
291.87	2586.00
292.33	2582.00
292.80	2578.00
293.27	2583.00
293.74	2580.00
294.21	2574.00
294.67	2583.00
295.14	2577.00
295.61	2581.00
296.08	2582.00
296.54	2586.00
297.01	2584.00
297.48	2582.00
297.95	2585.00
298.42	2583.00
298.88	2579.00
299.35	2583.00
299.82	2579.00
300.29	2571.00
300.75	2577.00
301.22	2579.00
301.69	2582.00
302.16	2581.00
302.62	2581.00
303.09	2580.00
303.56	2580.00
304.03	2585.00
304.49	2583.00
304.96	2587.00
305.43	2589.00
305.90	2584.00
306.36	2591.00
306.83	2590.00
307.30	2585.00
307.76	2588.00
308.23	2594.00
308.70	2590.00
309.17	2596.00
309.63	2589.00
310.10	2599.00
310.57	2608.00
311.03	2604.00
311.50	2618.00
311.97	2613.00
312.44	2605.00
312.90	2613.00
313.37	2625.00
313.84	2621.00
314.30	2623.00
314.77	2630.00
315.24	2629.00
315.70	2636.00
316.17	2634.00
316.64	2639.00
317.10	2647.00
317.57	2662.00
318.04	2657.00
318.50	2657.00
318.97	2655.00
319.44	2653.00
319.90	2661.00
320.37	2665.00
320.84	2689.00
321.30	2677.00
321.77	2681.00
322.24	2693.00
322.70	2685.00
323.17	2682.00
323.64	2682.00
324.10	2702.00
324.57	2702.00
325.04	2692.00
325.50	2725.00
325.97	2727.00
326.44	2748.00
326.90	2752.00
327.37	2749.00
327.84	2761.00
328.30	2721.00
328.77	2740.00
329.23	2778.00
329.70	2782.00
330.17	2789.00
330.63	2775.00
331.10	2760.00
331.56	2763.00
332.03	2764.00
332.50	2770.00
332.96	2782.00
333.43	2776.00
333.90	2767.00
334.36	2761.00
334.83	2778.00
335.29	2783.00
335.76	2782.00
336.22	2786.00
336.69	2759.00
337.16	2758.00
337.62	2766.00
338.09	2780.00
338.55	2806.00
339.02	2800.00
339.49	2787.00
339.95	2823.00
340.42	2814.00
340.88	2811.00
341.35	2807.00
341.81	2801.00
342.28	2823.00
342.75	2806.00
343.21	2822.00
343.68	2819.00
344.14	2805.00
344.61	2780.00
345.07	2807.00
345.54	2823.00
346.00	2827.00
346.47	2832.00
346.93	2848.00
347.40	2846.00
347.87	2851.00
348.33	2838.00
348.80	2847.00
349.26	2867.00
349.73	2844.00
350.19	2858.00
350.66	2885.00
351.12	2883.00
351.59	2865.00
352.05	2867.00
352.52	2866.00
352.98	2861.00
353.45	2890.00
353.91	2926.00
354.38	2904.00
354.84	2938.00
355.31	2905.00
355.77	2895.00
356.24	2894.00
356.70	2871.00
357.17	2842.00
357.63	2833.00
358.10	2846.00
358.56	2831.00
359.03	2849.00
359.49	2878.00
359.96	2901.00
360.42	2894.00
360.89	2920.00
361.35	2880.00
361.82	2898.00
362.28	2894.00
362.75	2923.00
363.21	2920.00
363.67	2908.00
364.14	2950.00
364.60	2937.00
365.07	2965.00
365.53	2977.00
366.00	2999.00
366.46	2998.00
366.93	3013.00
367.39	3014.00
367.86	2993.00
368.32	2983.00
368.78	2969.00
369.25	2993.00
369.71	2988.00
370.18	3019.00
370.64	3016.00
371.11	2967.00
371.57	3006.00
372.03	2984.00
372.50	2948.00
372.96	2963.00
373.43	2934.00
373.89	2910.00
374.35	2945.00
374.82	2941.00
375.28	2941.00
375.75	3005.00
376.21	3022.00
376.67	3022.00
377.14	3027.00
377.60	3071.00
378.07	3107.00
378.53	3128.00
378.99	3087.00
379.46	3073.00
379.92	3047.00
380.39	3033.00
380.85	3063.00
381.31	3053.00
381.78	2985.00
382.24	2956.00
382.70	2932.00
383.17	2933.00
383.63	2915.00
384.09	2930.00
384.56	2984.00
385.02	3055.00
385.48	3063.00
385.95	3033.00
386.41	2991.00
386.88	3060.00
387.34	3041.00
387.80	3036.00
388.27	3054.00
388.73	3068.00
389.19	3120.00
389.66	3154.00
390.12	3157.00
390.58	3179.00
391.05	3171.00
391.51	3188.00
391.97	3174.00
392.43	3110.00
392.90	3026.00
393.36	2975.00
393.82	2988.00
394.29	3058.00
394.75	3138.00
395.21	3184.00
395.68	3211.00
396.14	3156.00
396.60	3098.00
397.07	3062.00
397.53	3139.00
397.99	3263.00
398.45	3389.00
398.92	3434.00
399.38	3466.00
399.84	3492.00
400.31	3478.00
400.77	3517.00
401.23	3551.00
401.69	3581.00
402.16	3568.00
402.62	3590.00
403.08	3586.00
403.54	3557.00
404.01	3540.00
404.47	3578.00
404.93	3512.00
405.39	3553.00
405.86	3587.00
406.32	3528.00
406.78	3552.00
407.24	3574.00
407.71	3627.00
408.17	3600.00
408.63	3636.00
409.09	3639.00
409.56	3648.00
410.02	3625.00
410.48	3585.00
410.94	3654.00
411.40	3686.00
411.87	3715.00
412.33	3748.00
412.79	3685.00
413.25	3723.00
413.71	3737.00
414.18	3730.00
414.64	3761.00
415.10	3707.00
415.56	3735.00
416.02	3791.00
416.49	3735.00
416.95	3742.00
417.41	3749.00
417.87	3731.00
418.33	3741.00
418.80	3725.00
419.26	3774.00
419.72	3781.00
420.18	3745.00
420.64	3769.00
421.10	3809.00
421.57	3825.00
422.03	3803.00
422.49	3762.00
422.95	3782.00
423.41	3769.00
423.87	3813.00
424.34	3818.00
424.80	3818.00
425.26	3812.00
425.72	3804.00
426.18	3799.00
426.64	3810.00
427.10	3804.00
427.57	3730.00
428.03	3763.00
428.49	3716.00
428.95	3694.00
429.41	3679.00
429.87	3604.00
430.33	3633.00
430.79	3615.00
431.26	3630.00
431.72	3777.00
432.18	3914.00
432.64	3899.00
433.10	3817.00
433.56	3929.00
434.02	3900.00
434.48	3852.00
434.94	3872.00
435.40	3994.00
435.87	3988.00
436.33	4016.00
436.79	4041.00
437.25	3995.00
437.71	3955.00
438.17	3942.00
438.63	3946.00
439.09	3936.00
439.55	4019.00
440.01	4055.00
440.47	4043.00
440.93	4102.00
441.39	4114.00
441.85	4166.00
442.32	4210.00
442.78	4214.00
443.24	4195.00
443.70	4199.00
444.16	4243.00
444.62	4253.00
445.08	4208.00
445.54	4241.00
446.00	4256.00
446.46	4229.00
446.92	4245.00
447.38	4326.00
447.84	4310.00
448.30	4372.00
448.76	4348.00
449.22	4432.00
449.68	4394.00
450.14	4477.00
450.60	4457.00
451.06	4437.00
451.52	4457.00
451.98	4390.00
452.44	4395.00
452.90	4361.00
453.36	4312.00
453.82	4358.00
454.28	4372.00
454.74	4449.00
455.20	4444.00
455.66	4456.00
456.12	4440.00
456.58	4499.00
457.04	4491.00
457.50	4509.00
457.96	4494.00
458.42	4459.00
458.88	4482.00
459.34	4521.00
459.80	4481.00
460.26	4527.00
460.72	4562.00
461.18	4596.00
461.64	4577.00
462.10	4557.00
462.55	4568.00
463.01	4575.00
463.47	4539.00
463.93	4570.00
464.39	4556.00
464.85	4596.00
465.31	4498.00
465.77	4501.00
466.23	4594.00
466.69	4553.00
467.15	4549.00
467.61	4534.00
468.07	4618.00
468.52	4616.00
468.98	4568.00
469.44	4574.00
469.90	4549.00
470.36	4548.00
470.82	4545.00
471.28	4603.00
471.74	4638.00
472.20	4655.00
472.66	4635.00
473.11	4664.00
473.57	4641.00
474.03	4638.00
474.49	4660.00
474.95	4690.00
475.41	4668.00
475.87	4640.00
476.33	4675.00
476.78	4669.00
477.24	4745.00
477.70	4684.00
478.16	4723.00
478.62	4758.00
479.08	4735.00
479.54	4731.00
479.99	4769.00
480.45	4778.00
480.91	4722.00
481.37	4778.00
481.83	4777.00
482.29	4814.00
482.74	4815.00
483.20	4786.00
483.66	4753.00
484.12	4742.00
484.58	4736.00
485.04	4634.00
485.49	4541.00
485.95	4511.00
486.41	4503.00
486.87	4503.00
487.33	4590.00
487.78	4655.00
488.24	4676.00
488.70	4739.00
489.16	4712.00
489.62	4800.00
490.07	4784.00
490.53	4791.00
490.99	4781.00
491.45	4741.00
491.90	4734.00
492.36	4757.00
492.82	4799.00
493.28	4787.00
493.74	4838.00
494.19	4824.00
494.65	4852.00
495.11	4882.00
495.57	4907.00
496.02	4842.00
496.48	4851.00
496.94	4886.00
497.40	4803.00
497.85	4754.00
498.31	4840.00
498.77	4844.00
499.23	4830.00
499.68	4838.00
500.14	4776.00
500.60	4781.00
501.06	4799.00
501.51	4721.00
501.97	4730.00
502.43	4774.00
502.88	4768.00
503.34	4773.00
503.80	4866.00
504.26	4853.00
504.71	4777.00
505.17	4944.00
505.63	4866.00
506.08	4912.00
506.54	4886.00
507.00	4924.00
507.45	4828.00
507.91	4810.00
508.37	4853.00
508.82	4883.00
509.28	4905.00
509.74	4978.00
510.19	4996.00
510.65	4942.00
511.11	4961.00
511.56	4949.00
512.02	4894.00
512.48	4920.00
512.93	4889.00
513.39	4873.00
513.85	4858.00
514.30	4852.00
514.76	4822.00
515.22	4911.00
515.67	4861.00
516.13	4783.00
516.59	4723.00
517.04	4703.00
517.50	4635.00
517.95	4655.00
518.41	4769.00
518.87	4827.00
519.32	4833.00
519.78	4906.00
520.24	4843.00
520.69	4981.00
521.15	4896.00
521.60	4961.00
522.06	4942.00
522.52	4941.00
522.97	4907.00
523.43	5003.00
523.88	5049.00
524.34	5048.00
524.80	5070.00
525.25	5060.00
525.71	4941.00
526.16	4885.00
526.62	4935.00
527.07	4901.00
527.53	4864.00
527.99	5019.00
528.44	5053.00
528.90	5154.00
529.35	5107.00
529.81	5171.00
530.26	5102.00
530.72	5163.00
531.17	5149.00
531.63	5121.00
532.09	5007.00
532.54	5047.00
533.00	5096.00
533.45	5055.00
533.91	5047.00
534.36	5056.00
534.82	5095.00
535.27	5172.00
535.73	5137.00
536.18	5113.00
536.64	5053.00
537.09	5114.00
537.55	5075.00
538.00	5091.00
538.46	5155.00
538.91	5085.00
539.37	5086.00
539.82	5028.00
540.28	5053.00
540.73	5050.00
541.19	5059.00
541.64	5098.00
542.10	5091.00
542.55	5090.00
543.01	5146.00
543.46	5141.00
543.92	5181.00
544.37	5133.00
544.83	5138.00
545.28	5246.00
545.74	5171.00
546.19	5153.00
546.64	5169.00
547.10	5175.00
547.55	5084.00
548.01	5099.00
548.46	5123.00
548.92	5235.00
549.37	5224.00
549.83	5176.00
550.28	5170.00
550.73	5160.00
551.19	5149.00
551.64	5186.00
552.10	5174.00
552.55	5194.00
553.00	5192.00
553.46	5154.00
553.91	5185.00
554.37	5217.00
554.82	5281.00
555.28	5177.00
555.73	5210.00
556.18	5130.00
556.64	5131.00
557.09	5160.00
557.54	5119.00
558.00	5147.00
558.45	5143.00
558.91	5111.00
559.36	5097.00
559.81	5136.00
560.27	5111.00
560.72	5148.00
561.17	5163.00
561.63	5236.00
562.08	5131.00
562.54	5140.00
562.99	5220.00
563.44	5175.00
563.90	5196.00
564.35	5108.00
564.80	5172.00
565.26	5108.00
565.71	5141.00
566.16	5137.00
566.62	5181.00
567.07	5165.00
567.52	5179.00
567.98	5136.00
568.43	5079.00
568.88	5207.00
569.34	5098.00
569.79	5125.00
570.24	5104.00
570.69	5055.00
571.15	5083.00
571.60	5085.00
572.05	5179.00
572.51	5173.00
572.96	5212.00
573.41	5170.00
573.86	5216.00
574.32	5201.00
574.77	5191.00
575.22	5175.00
575.68	5113.00
576.13	5161.00
576.58	5186.00
577.03	5155.00
577.49	5169.00
577.94	5138.00
578.39	5172.00
578.84	5129.00
579.30	5150.00
579.75	5196.00
580.20	5230.00
580.65	5212.00
581.11	5217.00
581.56	5249.00
582.01	5293.00
582.46	5323.00
582.92	5322.00
583.37	5255.00
583.82	5284.00
584.27	5348.00
584.72	5291.00
585.18	5227.00
585.63	5211.00
586.08	5239.00
586.53	5214.00
586.98	5238.00
587.44	5224.00
587.89	5239.00
588.34	5098.00
588.79	4990.00
589.24	4955.00
589.70	4947.00
590.15	5018.00
590.60	5133.00
591.05	5171.00
591.50	5131.00
591.96	5145.00
592.41	5158.00
592.86	5173.00
593.31	5239.00
593.76	5173.00
594.21	5178.00
594.66	5113.00
595.12	5187.00
595.57	5095.00
596.02	5200.00
596.47	5135.00
596.92	5192.00
597.37	5214.00
597.82	5158.00
598.28	5179.00
598.73	5175.00
599.18	5187.00
599.63	5219.00
600.08	5154.00
600.53	5179.00
600.98	5193.00
601.43	5141.00
601.88	5244.00
602.34	5242.00
602.79	5285.00
603.24	5259.00
603.69	5296.00
604.14	5266.00
604.59	5282.00
605.04	5217.00
605.49	5270.00
605.94	5256.00
606.39	5225.00
606.84	5274.00
607.30	5217.00
607.75	5288.00
608.20	5260.00
608.65	5267.00
609.10	5243.00
609.55	5222.00
610.00	5249.00
610.45	5264.00
610.90	5245.00
611.35	5203.00
611.80	5272.00
612.25	5261.00
612.70	5271.00
613.15	5274.00
613.60	5219.00
614.05	5234.00
614.50	5226.00
614.95	5241.00
615.40	5222.00
615.85	5184.00
616.30	5132.00
616.75	5131.00
617.20	5143.00
617.65	5195.00
618.10	5302.00
618.55	5306.00
619.00	5227.00
619.45	5239.00
619.90	5264.00
620.35	5252.00
620.80	5289.00
621.25	5300.00
621.70	5250.00
622.15	5244.00
622.60	5263.00
623.05	5216.00
623.50	5178.00
623.95	5154.00
624.40	5198.00
624.85	5242.00
625.30	5197.00
625.75	5213.00
626.20	5187.00
626.65	5230.00
627.10	5215.00
627.55	5155.00
627.99	5136.00
628.44	5107.00
628.89	5156.00
629.34	5163.00
629.79	5147.00
630.24	5175.00
630.69	5205.00
631.14	5191.00
631.59	5126.00
632.04	5197.00
632.49	5236.00
632.94	5196.00
633.38	5236.00
633.83	5247.00
634.28	5207.00
634.73	5281.00
635.18	5276.00
635.63	5273.00
636.08	5239.00
636.53	5262.00
636.97	5319.00
637.42	5280.00
637.87	5291.00
638.32	5396.00
638.77	5366.00
639.22	5306.00
639.67	5314.00
640.11	5259.00
640.56	5305.00
641.01	5245.00
641.46	5332.00
641.91	5288.00
642.36	5241.00
642.81	5328.00
643.25	5319.00
643.70	5262.00
644.15	5324.00
644.60	5295.00
645.05	5289.00
645.49	5332.00
645.94	5263.00
646.39	5232.00
646.84	5232.00
647.29	5251.00
647.73	5202.00
648.18	5149.00
648.63	5237.00
649.08	5218.00
649.53	5125.00
649.97	5162.00
650.42	5212.00
650.87	5257.00
651.32	5257.00
651.77	5195.00
652.21	5215.00
652.66	5202.00
653.11	5288.00
653.56	5313.00
654.00	5270.00
654.45	5287.00
654.90	5160.00
655.35	5109.00
655.79	5007.00
656.24	4829.00
656.69	4869.00
657.14	4947.00
657.58	5080.00
658.03	5219.00
658.48	5200.00
658.92	5240.00
659.37	5265.00
659.82	5222.00
660.27	5226.00
660.71	5266.00
661.16	5253.00
661.61	5249.00
662.05	5302.00
662.50	5266.00
662.95	5346.00
663.39	5278.00
663.84	5262.00
664.29	5301.00
664.74	5323.00
665.18	5358.00
665.63	5327.00
666.08	5222.00
666.52	5309.00
666.97	5378.00
667.42	5279.00
667.86	5309.00
668.31	5311.00
668.76	5310.00
669.20	5277.00
669.65	5315.00
670.09	5275.00
670.54	5217.00
670.99	5332.00
671.43	5286.00
671.88	5303.00
672.33	5226.00
672.77	5257.00
673.22	5243.00
673.66	5304.00
674.11	5254.00
674.56	5240.00
675.00	5246.00
675.45	5267.00
675.90	5296.00
676.34	5263.00
676.79	5240.00
677.23	5185.00
677.68	5261.00
678.12	5245.00
678.57	5226.00
679.02	5253.00
679.46	5239.00
679.91	5263.00
680.35	5253.00
680.80	5267.00
681.25	5220.00
681.69	5209.00
682.14	5279.00
682.58	5238.00
683.03	5191.00
683.47	5176.00
683.92	5170.00
684.36	5198.00
684.81	5172.00
685.25	5174.00
685.70	5213.00
686.15	5065.00
686.59	4936.00
687.04	4523.00
687.48	4372.00
687.93	4526.00
688.37	4707.00
688.82	4717.00
689.26	4730.00
689.71	4660.00
690.15	4747.00
690.60	4788.00
691.04	4869.00
691.49	4935.00
691.93	4930.00
692.38	4955.00
692.82	4974.00
693.27	4926.00
693.71	4906.00
694.16	4921.00
694.60	4899.00
695.04	4921.00
695.49	4933.00
695.93	4981.00
696.38	5039.00
696.82	5046.00
697.27	5054.00
697.71	5037.00
698.16	5083.00
698.60	4979.00
699.04	5000.00
699.49	5005.00
699.93	4951.00
700.38	4940.00
700.82	4978.00
701.27	4957.00
701.71	4922.00
702.15	4895.00
702.60	4988.00
703.04	4913.00
703.49	5017.00
703.93	5008.00
704.37	5062.00
704.82	5076.00
705.26	5048.00
705.71	5064.00
706.15	4998.00
706.59	5016.00
707.04	5047.00
707.48	4978.00
707.93	5095.00
708.37	5077.00
708.81	5026.00
709.26	4984.00
709.70	5045.00
710.14	5085.00
710.59	5036.00
711.03	5027.00
711.47	4971.00
711.92	5005.00
712.36	4940.00
712.80	5005.00
713.25	5007.00
713.69	4996.00
714.13	4953.00
714.58	4996.00
715.02	4875.00
715.46	4955.00
715.91	4839.00
716.35	4812.00
716.79	4692.00
717.24	4517.00
717.68	4482.00
718.12	4406.00
718.57	4335.00
719.01	4296.00
719.45	4238.00
719.89	4282.00
720.34	4294.00
720.78	4381.00
721.22	4550.00
721.66	4631.00
722.11	4700.00
722.55	4659.00
722.99	4642.00
723.44	4483.00
723.88	4412.00
724.32	4433.00
724.76	4362.00
725.21	4405.00
725.65	4439.00
726.09	4509.00
726.53	4489.00
726.97	4494.00
727.42	4444.00
727.86	4372.00
728.30	4439.00
728.74	4501.00
729.19	4417.00
729.63	4463.00
730.07	4514.00
730.51	4530.00
730.95	4511.00
731.40	4561.00
731.84	4538.00
732.28	4659.00
732.72	4691.00
733.16	4683.00
733.61	4668.00
734.05	4771.00
734.49	4744.00
734.93	4747.00
735.37	4714.00
735.81	4736.00
736.26	4751.00
736.70	4728.00
737.14	4718.00
737.58	4767.00
738.02	4756.00
738.46	4724.00
738.90	4735.00
739.35	4676.00
739.79	4769.00
740.23	4796.00
740.67	4778.00
741.11	4669.00
741.55	4768.00
741.99	4690.00
742.44	4766.00
742.88	4727.00
743.32	4784.00
743.76	4774.00
744.20	4806.00
744.64	4815.00
745.08	4778.00
745.52	4741.00
745.96	4797.00
746.40	4799.00
746.84	4812.00
747.29	4819.00
747.73	4786.00
748.17	4809.00
748.61	4790.00
749.05	4819.00
749.49	4769.00
749.93	4835.00
750.37	4751.00
750.81	4788.00
751.25	4766.00
751.69	4822.00
752.13	4784.00
752.57	4807.00
753.01	4758.00
753.45	4803.00
753.89	4734.00
754.33	4807.00
754.77	4822.00
755.21	4757.00
755.65	4821.00
756.09	4843.00
756.53	4784.00
756.97	4806.00
757.41	4779.00
757.85	4776.00
758.29	4732.00
758.73	4684.00
759.17	4494.00
759.61	3943.00
760.05	3331.00
760.49	2982.00
760.93	2933.00
761.37	3111.00
761.81	3471.00
762.25	3658.00
762.69	3514.00
763.13	3345.00
763.57	3371.00
764.01	3451.00
764.45	3547.00
764.89	3730.00
765.33	3869.00
765.77	4005.00
766.21	4111.00
766.65	4228.00
767.09	4367.00
767.53	4454.00
767.96	4529.00
768.40	4600.00
768.84	4635.00
769.28	4577.00
769.72	4627.00
770.16	4658.00
770.60	4705.00
771.04	4650.00
771.48	4713.00
771.92	4748.00
772.35	4757.00
772.79	4670.00
773.23	4698.00
773.67	4681.00
774.11	4703.00
774.55	4639.00
774.99	4650.00
775.43	4615.00
775.86	4681.00
776.30	4713.00
776.74	4700.00
777.18	4688.00
777.62	4658.00
778.06	4655.00
778.50	4629.00
778.93	4673.00
779.37	4647.00
779.81	4616.00
780.25	4615.00
780.69	4579.00
781.12	4638.00
781.56	4639.00
782.00	4631.00
782.44	4654.00
782.88	4631.00
783.32	4622.00
783.75	4594.00
784.19	4602.00
784.63	4556.00
785.07	4547.00
785.50	4550.00
785.94	4564.00
786.38	4527.00
786.82	4574.00
787.26	4506.00
787.69	4483.00
788.13	4537.00
788.57	4536.00
789.01	4498.00
789.44	4472.00
789.88	4456.00
790.32	4459.00
790.76	4439.00
791.19	4395.00
791.63	4422.00
792.07	4404.00
792.51	4429.00
792.94	4404.00
793.38	4390.00
793.82	4402.00
794.25	4439.00
794.69	4430.00
795.13	4471.00
795.56	4436.00
796.00	4364.00
796.44	4411.00
796.88	4433.00
797.31	4411.00
797.75	4344.00
798.19	4357.00
798.62	4355.00
799.06	4402.00
799.50	4347.00
799.93	4355.00
800.37	4356.00
800.81	4407.00
801.24	4389.00
801.68	4366.00
802.12	4335.00
802.55	4345.00
802.99	4325.00
803.43	4336.00
803.86	4315.00
804.30	4322.00
804.73	4307.00
805.17	4323.00
805.61	4364.00
806.04	4346.00
806.48	4358.00
806.92	4325.00
807.35	4323.00
807.79	4305.00
808.22	4273.00
808.66	4286.00
809.10	4255.00
809.53	4211.00
809.97	4175.00
810.40	4246.00
810.84	4218.00
811.27	4178.00
811.71	4184.00
812.15	4181.00
812.58	4139.00
813.02	4063.00
813.45	3993.00
813.89	4006.00
814.32	3949.00
814.76	3897.00
815.19	3883.00
815.63	3902.00
816.07	3826.00
816.50	3790.00
816.94	3798.00
817.37	3907.00
817.81	3834.00
818.24	3797.00
818.68	3895.00
819.11	3871.00
819.55	3895.00
819.98	3880.00
820.42	3984.00
820.85	4023.00
821.29	4017.00
821.72	3979.00
822.16	3919.00
822.59	3748.00
823.03	3596.00
823.46	3714.00
823.90	3864.00
824.33	3985.00
824.77	4015.00
825.20	4067.00
825.63	4028.00
826.07	3988.00
826.50	4026.00
826.94	4044.00
827.37	3899.00
827.81	3872.00
828.24	3858.00
828.68	3871.00
829.11	3877.00
829.54	3886.00
829.98	3918.00
830.41	3918.00
830.85	3954.00
831.28	4003.00
831.71	3929.00
832.15	3921.00
832.58	3988.00
833.02	3966.00
833.45	3919.00
833.88	3961.00
834.32	3994.00
834.75	3961.00
835.19	4017.00
835.62	4003.00
836.05	3963.00
836.49	3970.00
836.92	4039.00
837.35	4057.00
837.79	4081.00
838.22	4086.00
838.66	4047.00
839.09	4076.00
839.52	4091.00
839.96	4077.00
840.39	4048.00
840.82	4048.00
841.26	4010.00
841.69	4042.00
842.12	4046.00
842.56	4068.00
842.99	4085.00
843.42	4029.00
843.85	4029.00
844.29	4073.00
844.72	4015.00
845.15	4108.00
845.59	4119.00
846.02	4075.00
846.45	4075.00
846.88	4062.00
847.32	4043.00
847.75	4082.00
848.18	4020.00
848.62	4057.00
849.05	4046.00
849.48	3915.00
849.91	3915.00
850.35	3982.00
850.78	4022.00
851.21	4022.00
851.64	3997.00
852.08	4039.00
852.51	4061.00
852.94	4029.00
853.37	3988.00
853.80	3798.00
854.24	3732.00
854.67	3841.00
855.10	3952.00
855.53	3972.00
855.97	3981.00
856.40	4030.00
856.83	3976.00
857.26	4043.00
857.69	4023.00
858.13	4047.00
858.56	4000.00
858.99	4070.00
859.42	4029.00
859.85	3975.00
860.28	4042.00
860.72	4029.00
861.15	4024.00
861.58	4018.00
862.01	4007.00
862.44	3996.00
862.87	3956.00
863.30	4016.00
863.74	3971.00
864.17	4028.00
864.60	3959.00
865.03	3970.00
865.46	3922.00
865.89	3833.00
866.32	3815.00
866.75	3879.00
867.19	3978.00
867.62	3982.00
868.05	4014.00
868.48	3991.00
868.91	3958.00
869.34	3912.00
869.77	3987.00
870.20	3941.00
870.63	3927.00
871.06	3927.00
871.49	3956.00
871.93	3974.00
872.36	3951.00
872.79	3941.00
873.22	3942.00
873.65	3906.00
874.08	3947.00
874.51	3961.00
874.94	3953.00
875.37	3942.00
875.80	3975.00
876.23	3966.00
876.66	3917.00
877.09	3886.00
877.52	3910.00
877.95	3978.00
878.38	3916.00
878.81	3899.00
879.24	3878.00
879.67	3903.00
880.10	3907.00
880.53	3861.00
880.96	3892.00
881.39	3936.00
881.82	3928.00
882.25	3901.00
882.68	3931.00
883.11	3937.00
883.54	3967.00
883.97	3931.00
884.40	3921.00
884.83	3876.00
885.26	3877.00
885.69	3896.00
886.12	3861.00
886.55	3874.00
886.98	3858.00
887.40	3842.00
887.83	3905.00
888.26	3891.00
888.69	3919.00
889.12	3885.00
889.55	3911.00
889.98	3876.00
890.41	3888.00
890.84	3871.00
891.27	3880.00
891.70	3897.00
892.12	3821.00
892.55	3777.00
892.98	3809.00
893.41	3782.00
893.84	3735.00
894.27	3715.00
894.70	3644.00
895.13	3628.00
895.55	3670.00
895.98	3555.00
896.41	3529.00
896.84	3578.00
897.27	3575.00
897.70	3592.00
898.13	3542.00
898.55	3394.00
898.98	3443.00
899.41	3556.00
899.84	3491.00
900.27	3438.00
900.70	3472.00
901.12	3515.00
901.55	3487.00
901.98	3472.00
902.41	3484.00
902.84	3586.00
903.26	3646.00
903.69	3669.00
904.12	3659.00
904.55	3646.00
904.97	3640.00
905.40	3674.00
905.83	3602.00
906.26	3526.00
906.69	3483.00
907.11	3499.00
907.54	3446.00
907.97	3438.00
908.40	3422.00
908.82	3426.00
909.25	3459.00
909.68	3445.00
910.10	3428.00
910.53	3450.00
910.96	3485.00
911.39	3442.00
911.81	3497.00
912.24	3487.00
912.67	3347.00
913.09	3334.00
913.52	3399.00
913.95	3512.00
914.38	3488.00
914.80	3326.00
915.23	3344.00
915.66	3439.00
916.08	3461.00
916.51	3454.00
916.94	3369.00
917.36	3362.00
917.79	3404.00
918.22	3447.00
918.64	3485.00
919.07	3482.00
919.50	3512.00
919.92	3526.00
920.35	3469.00
920.78	3482.00
921.20	3486.00
921.63	3484.00
922.05	3495.00
922.48	3442.00
922.91	3422.00
923.33	3467.00
923.76	3406.00
924.18	3423.00
924.61	3431.00
925.04	3420.00
925.46	3381.00
925.89	3408.00
926.31	3435.00
926.74	3382.00
927.17	3330.00
927.59	3255.00
928.02	3185.00
928.44	3180.00
928.87	3145.00
929.29	3094.00
929.72	3077.00
930.15	3036.00
930.57	3001.00
931.00	2941.00
931.42	2892.00
931.85	2866.00
932.27	2870.00
932.70	2837.00
933.12	2778.00
933.55	2754.00
933.97	2768.00
934.40	2830.00
934.82	2801.00
935.25	2777.00
935.67	2838.00
936.10	2773.00
936.52	2777.00
936.95	2771.00
937.37	2771.00
937.80	2796.00
938.22	2863.00
938.65	2924.00
939.07	2938.00
939.50	2864.00
939.92	2867.00
940.35	2830.00
940.77	2838.00
941.19	2856.00
941.62	2835.00
942.04	2803.00
942.47	2790.00
942.89	2809.00
943.32	2773.00
943.74	2752.00
944.16	2809.00
944.59	2813.00
945.01	2771.00
945.44	2783.00
945.86	2809.00
946.29	2791.00
946.71	2817.00
947.13	2812.00
947.56	2816.00
947.98	2862.00
948.40	2871.00
948.83	2811.00
949.25	2756.00
949.68	2831.00
950.10	2905.00
950.52	2930.00
950.95	2859.00
951.37	2808.00
951.79	2803.00
952.22	2846.00
952.64	2904.00
953.06	2900.00
953.49	2885.00
953.91	2848.00
954.33	2900.00
954.76	2878.00
955.18	2899.00
955.60	2886.00
956.03	2873.00
956.45	2955.00
956.87	2995.00
957.30	2951.00
957.72	2955.00
958.14	2889.00
958.56	2908.00
958.99	2928.00
959.41	2979.00
959.83	2970.00
960.26	3007.00
960.68	3033.00
961.10	3001.00
961.52	2950.00
961.95	2997.00
962.37	3047.00
962.79	3018.00
963.21	3003.00
963.64	3039.00
964.06	3033.00
964.48	3054.00
964.90	3076.00
965.32	3019.00
965.75	3041.00
966.17	3095.00
966.59	3149.00
967.01	3163.00
967.44	3172.00
967.86	3190.00
968.28	3214.00
968.70	3193.00
969.12	3191.00
969.54	3222.00
969.97	3214.00
970.39	3211.00
970.81	3208.00
971.23	3173.00
971.65	3188.00
972.07	3174.00
972.50	3140.00
972.92	3108.00
973.34	3133.00
973.76	3185.00
974.18	3135.00
974.60	3104.00
975.02	3108.00
975.45	3100.00
975.87	3151.00
976.29	3171.00
976.71	3160.00
977.13	3154.00
977.55	3151.00
977.97	3164.00
978.39	3165.00
978.81	3163.00
979.24	3168.00
979.66	3197.00
980.08	3195.00
980.50	3191.00
980.92	3193.00
981.34	3178.00
981.76	3186.00
982.18	3209.00
982.60	3190.00
983.02	3211.00
983.44	3184.00
983.86	3165.00
984.28	3218.00
984.70	3209.00
985.12	3213.00
985.54	3186.00
985.96	3190.00
986.38	3184.00
986.80	3190.00
987.23	3202.00
987.65	3201.00
988.07	3210.00
988.49	3195.00
988.91	3201.00
989.33	3180.00
989.74	3175.00
990.16	3213.00
990.58	3189.00
991.00	3200.00
991.42	3193.00
991.84	3184.00
992.26	3177.00
992.68	3210.00
993.10	3170.00
993.52	3173.00
993.94	3175.00
994.36	3157.00
994.78	3171.00
995.20	3173.00
995.62	3176.00
996.04	3182.00
996.46	3161.00
996.88	3203.00
997.30	3176.00
997.71	3184.00
998.13	3206.00
998.55	3198.00
998.97	3194.00
999.39	3206.00
999.81	3202.00
1000.23	3187.00
1000.65	3178.00
1001.07	3185.00
1001.49	3182.00
1001.90	3175.00
1002.32	3179.00
1002.74	3168.00
1003.16	3169.00
1003.58	3139.00
1004.00	3169.00
1004.42	3144.00
1004.83	3141.00
1005.25	3162.00
1005.67	3138.00
1006.09	3146.00
1006.51	3145.00
1006.92	3119.00
1007.34	3147.00
1007.76	3133.00
1008.18	3131.00
1008.60	3157.00
1009.02	3142.00
1009.43	3153.00
1009.85	3177.00
1010.27	3128.00
1010.69	3119.00
1011.10	3128.00
1011.52	3106.00
1011.94	3127.00
1012.36	3115.00
1012.78	3103.00
1013.19	3101.00
1013.61	3111.00
1014.03	3095.00
1014.45	3101.00
1014.86	3068.00
1015.28	3102.00
1015.70	3075.00
1016.12	3062.00
1016.53	3076.00
1016.95	3058.00
1017.37	3072.00
1017.78	3043.00
1018.20	3038.00
1018.62	3030.00
1019.03	3019.00
1019.45	3045.00
1019.87	3034.00
1020.29	3030.00
1020.70	3035.00
1021.12	3023.00
1021.54	3024.00
1021.95	3018.00
1022.37	2982.00
1022.79	3005.00
1023.20	3031.00
1023.62	3004.00
1024.04	2976.00
1024.45	2998.00
1024.87	2960.00
1025.28	2977.00
1025.70	3006.00
1026.12	2973.00
1026.53	2972.00
1026.95	2990.00
1027.37	2993.00
1027.78	2942.00
1028.20	2949.00
1028.61	2956.00
1029.03	2961.00
1029.45	2957.00
1029.86	2930.00
1030.28	2934.00
1030.69	2942.00
1031.11	2942.00
1031.53	2912.00
1031.94	2927.00
1032.36	2906.00
1032.77	2916.00
1033.19	2913.00
1033.60	2918.00
1034.02	2910.00
1034.43	2938.00
1034.85	2892.00
1035.27	2893.00
1035.68	2895.00
1036.10	2897.00
1036.51	2880.00
1036.93	2883.00
1037.34	2890.00
1037.76	2877.00
1038.17	2883.00
1038.59	2887.00
1039.00	2859.00
1039.42	2876.00
1039.83	2877.00
1040.25	2854.00
1040.66	2855.00
1041.08	2837.00
1041.49	2866.00
1041.91	2839.00
1042.32	2841.00
1042.73	2823.00
1043.15	2839.00
1043.56	2824.00
1043.98	2846.00
1044.39	2815.00
1044.81	2817.00
1045.22	2819.00
1045.64	2818.00
1046.05	2815.00
1046.46	2817.00
1046.88	2796.00
1047.29	2789.00
1047.71	2788.00
1048.12	2803.00
1048.53	2788.00
1048.95	2802.00
1049.36	2794.00
1049.78	2778.00
1050.19	2787.00
1050.60	2790.00
1051.02	2777.00
1051.43	2774.00
1051.85	2774.00
1052.26	2759.00
1052.67	2779.00
1053.09	2772.00
1053.50	2783.00
1053.91	2772.00
1054.33	2772.00
1054.74	2759.00
1055.15	2742.00
1055.57	2749.00
1055.98	2744.00
1056.39	2743.00
1056.81	2733.00
1057.22	2746.00
1057.63	2749.00
1058.05	2735.00
1058.46	2737.00
1058.87	2720.00
1059.28	2726.00
1059.70	2727.00
1060.11	2722.00
1060.52	2720.00
1060.94	2724.00
1061.35	2711.00
1061.76	2718.00
1062.17	2719.00
1062.59	2713.00
1063.00	2733.00
1063.41	2705.00
1063.82	2702.00
1064.24	2707.00
1064.65	2710.00
1065.06	2695.00
1065.47	2697.00
1065.89	2701.00
1066.30	2691.00
1066.71	2698.00
1067.12	2701.00
1067.53	2674.00
1067.95	2698.00
1068.36	2681.00
1068.77	2678.00
1069.18	2683.00
1069.59	2696.00
1070.00	2676.00
1070.42	2666.00
1070.83	2678.00
1071.24	2673.00
1071.65	2675.00
1072.06	2672.00
1072.47	2683.00
1072.89	2672.00
1073.30	2665.00
1073.71	2667.00
1074.12	2676.00
1074.53	2667.00
1074.94	2669.00
1075.35	2662.00
1075.77	2653.00
1076.18	2658.00
1076.59	2657.00
1077.00	2654.00
1077.41	2657.00
1077.82	2652.00
1078.23	2652.00
1078.64	2654.00
1079.05	2649.00
1079.46	2653.00
1079.87	2654.00
1080.29	2655.00
1080.70	2647.00
1081.11	2646.00
1081.52	2644.00
1081.93	2635.00
1082.34	2640.00
1082.75	2640.00
1083.16	2640.00
1083.57	2640.00
1083.98	2643.00
1084.39	2637.00
1084.80	2635.00
1085.21	2632.00
1085.62	2624.00
1086.03	2651.00
1086.44	2642.00
1086.85	2629.00
1087.26	2623.00
1087.67	2625.00
1088.08	2639.00
1088.49	2633.00
1088.90	2622.00
1089.31	2631.00
1089.72	2623.00
1090.13	2618.00
1090.54	2615.00
1090.95	2618.00
1091.36	2614.00
1091.77	2625.00
1092.18	2620.00
1092.59	2630.00
1093.00	2612.00
1093.40	2615.00
1093.81	2605.00
1094.22	2615.00
1094.63	2614.00
1095.04	2602.00
1095.45	2612.00
1095.86	2606.00
1096.27	2611.00
1096.68	2603.00
1097.09	2600.00
1097.50	2613.00
1097.90	2598.00
1098.31	2598.00
1098.72	2604.00
1099.13	2598.00
1099.54	2602.00
1099.95	2591.00
1100.36	2601.00
1100.76	2600.00
1101.17	2593.00
1101.58	2600.00
1101.99	2597.00
1102.40	2598.00
1102.81	2597.00
1103.22	2591.00
1103.62	2594.00
1104.03	2595.00
1104.44	2588.00
1104.85	2589.00
1105.26	2598.00
1105.66	2587.00
1106.07	2587.00
1106.48	2592.00
1106.89	2589.00
1107.30	2585.00
1107.70	2587.00
1108.11	2594.00
1108.52	2587.00
1108.93	2577.00
1109.33	2588.00
1109.74	2582.00
1110.15	2586.00
1110.56	2583.00
1110.96	2583.00
1111.37	2588.00
1111.78	2582.00
1112.19	2587.00
1112.59	2579.00
1113.00	2579.00
1113.41	2582.00
1113.81	2580.00
1114.22	2583.00
1114.63	2557.00
1115.03	2558.00
1115.44	2557.00
1115.85	2560.00
>>>>>End Processed Spectral Data<<<<<
