SpectraSuite Data File
++++++++++++++++++++++++++++++++++++
Date: Thu Aug 05 09:52:33 EEST 2021
User: CanSEE
Dark Spectrum Present: No
Reference Spectrum Present: No
Number of Sampled Component Spectra: 1
Spectrometers: MAYP112785
Integration Time (usec): 10000 (MAYP112785)
Spectra Averaged: 1 (MAYP112785)
Boxcar Smoothing: 0 (MAYP112785)
Correct for Electrical Dark: No (MAYP112785)
Strobe/Lamp Enabled: No (MAYP112785)
Correct for Detector Non-linearity: No (MAYP112785)
Correct for Stray Light: No (MAYP112785)
Number of Pixels in Processed Spectrum: 2068
>>>>>Begin Processed Spectral Data<<<<<
198.35	3430.00
198.82	2473.00
199.30	2568.00
199.77	2553.00
200.24	2576.00
200.71	2582.00
201.18	2585.00
201.65	2585.00
202.13	2585.00
202.60	2587.00
203.07	2585.00
203.54	2583.00
204.01	2583.00
204.48	2583.00
204.96	2577.00
205.43	2580.00
205.90	2582.00
206.37	2584.00
206.84	2579.00
207.31	2580.00
207.78	2579.00
208.26	2575.00
208.73	2577.00
209.20	2583.00
209.67	2584.00
210.14	2583.00
210.61	2575.00
211.08	2586.00
211.56	2580.00
212.03	2582.00
212.50	2580.00
212.97	2582.00
213.44	2572.00
213.91	2580.00
214.38	2570.00
214.85	2577.00
215.33	2573.00
215.80	2582.00
216.27	2572.00
216.74	2583.00
217.21	2589.00
217.68	2580.00
218.15	2590.00
218.62	2580.00
219.09	2581.00
219.57	2579.00
220.04	2582.00
220.51	2583.00
220.98	2578.00
221.45	2581.00
221.92	2574.00
222.39	2586.00
222.86	2583.00
223.33	2583.00
223.80	2585.00
224.27	2587.00
224.74	2583.00
225.22	2579.00
225.69	2582.00
226.16	2578.00
226.63	2578.00
227.10	2583.00
227.57	2579.00
228.04	2581.00
228.51	2579.00
228.98	2583.00
229.45	2577.00
229.92	2576.00
230.39	2589.00
230.86	2587.00
231.33	2583.00
231.80	2585.00
232.27	2584.00
232.75	2584.00
233.22	2581.00
233.69	2579.00
234.16	2581.00
234.63	2582.00
235.10	2581.00
235.57	2573.00
236.04	2585.00
236.51	2578.00
236.98	2578.00
237.45	2578.00
237.92	2582.00
238.39	2585.00
238.86	2581.00
239.33	2636.00
239.80	2575.00
240.27	2587.00
240.74	2578.00
241.21	2582.00
241.68	2578.00
242.15	2582.00
242.62	2575.00
243.09	2582.00
243.56	2578.00
244.03	2580.00
244.50	2580.00
244.97	2589.00
245.44	2591.00
245.91	2580.00
246.38	2581.00
246.85	2586.00
247.32	2580.00
247.79	2581.00
248.26	2582.00
248.73	2578.00
249.20	2580.00
249.67	2580.00
250.14	2587.00
250.61	2589.00
251.08	2586.00
251.55	2583.00
252.02	2579.00
252.49	2589.00
252.96	2582.00
253.43	2585.00
253.90	2585.00
254.37	2576.00
254.84	2588.00
255.31	2576.00
255.77	2585.00
256.24	2581.00
256.71	2579.00
257.18	2580.00
257.65	2585.00
258.12	2586.00
258.59	2583.00
259.06	2581.00
259.53	2577.00
260.00	2586.00
260.47	2578.00
260.94	2585.00
261.41	2586.00
261.88	2583.00
262.35	2582.00
262.81	2581.00
263.28	2581.00
263.75	2583.00
264.22	2581.00
264.69	2588.00
265.16	2580.00
265.63	2588.00
266.10	2578.00
266.57	2582.00
267.04	2582.00
267.51	2582.00
267.97	2576.00
268.44	2586.00
268.91	2587.00
269.38	2584.00
269.85	2586.00
270.32	2582.00
270.79	2589.00
271.26	2583.00
271.73	2585.00
272.19	2583.00
272.66	2583.00
273.13	2580.00
273.60	2582.00
274.07	2588.00
274.54	2586.00
275.01	2584.00
275.48	2588.00
275.94	2580.00
276.41	2579.00
276.88	2582.00
277.35	2586.00
277.82	2575.00
278.29	2581.00
278.76	2585.00
279.22	2581.00
279.69	2582.00
280.16	2589.00
280.63	2582.00
281.10	2582.00
281.57	2580.00
282.04	2583.00
282.50	2588.00
282.97	2582.00
283.44	2582.00
283.91	2573.00
284.38	2577.00
284.85	2584.00
285.31	2584.00
285.78	2581.00
286.25	2571.00
286.72	2587.00
287.19	2580.00
287.65	2589.00
288.12	2579.00
288.59	2587.00
289.06	2583.00
289.53	2577.00
289.99	2579.00
290.46	2586.00
290.93	2582.00
291.40	2577.00
291.87	2579.00
292.33	2585.00
292.80	2573.00
293.27	2589.00
293.74	2582.00
294.21	2582.00
294.67	2586.00
295.14	2585.00
295.61	2585.00
296.08	2584.00
296.54	2581.00
297.01	2579.00
297.48	2585.00
297.95	2587.00
298.42	2574.00
298.88	2578.00
299.35	2587.00
299.82	2581.00
300.29	2580.00
300.75	2577.00
301.22	2584.00
301.69	2582.00
302.16	2583.00
302.62	2580.00
303.09	2585.00
303.56	2587.00
304.03	2585.00
304.49	2582.00
304.96	2592.00
305.43	2582.00
305.90	2591.00
306.36	2582.00
306.83	2590.00
307.30	2588.00
307.76	2595.00
308.23	2588.00
308.70	2596.00
309.17	2594.00
309.63	2590.00
310.10	2598.00
310.57	2604.00
311.03	2607.00
311.50	2603.00
311.97	2611.00
312.44	2616.00
312.90	2621.00
313.37	2627.00
313.84	2627.00
314.30	2617.00
314.77	2624.00
315.24	2625.00
315.70	2631.00
316.17	2633.00
316.64	2647.00
317.10	2642.00
317.57	2659.00
318.04	2655.00
318.50	2648.00
318.97	2651.00
319.44	2655.00
319.90	2659.00
320.37	2669.00
320.84	2674.00
321.30	2677.00
321.77	2664.00
322.24	2667.00
322.70	2672.00
323.17	2681.00
323.64	2675.00
324.10	2702.00
324.57	2704.00
325.04	2724.00
325.50	2701.00
325.97	2735.00
326.44	2751.00
326.90	2751.00
327.37	2734.00
327.84	2747.00
328.30	2764.00
328.77	2752.00
329.23	2760.00
329.70	2780.00
330.17	2775.00
330.63	2773.00
331.10	2757.00
331.56	2775.00
332.03	2770.00
332.50	2764.00
332.96	2796.00
333.43	2766.00
333.90	2771.00
334.36	2780.00
334.83	2769.00
335.29	2769.00
335.76	2778.00
336.22	2760.00
336.69	2756.00
337.16	2761.00
337.62	2759.00
338.09	2770.00
338.55	2786.00
339.02	2801.00
339.49	2805.00
339.95	2804.00
340.42	2825.00
340.88	2816.00
341.35	2808.00
341.81	2811.00
342.28	2826.00
342.75	2844.00
343.21	2823.00
343.68	2817.00
344.14	2813.00
344.61	2785.00
345.07	2818.00
345.54	2821.00
346.00	2838.00
346.47	2835.00
346.93	2855.00
347.40	2840.00
347.87	2826.00
348.33	2843.00
348.80	2840.00
349.26	2854.00
349.73	2858.00
350.19	2884.00
350.66	2885.00
351.12	2875.00
351.59	2850.00
352.05	2865.00
352.52	2854.00
352.98	2882.00
353.45	2884.00
353.91	2895.00
354.38	2949.00
354.84	2893.00
355.31	2889.00
355.77	2897.00
356.24	2871.00
356.70	2862.00
357.17	2855.00
357.63	2850.00
358.10	2824.00
358.56	2824.00
359.03	2849.00
359.49	2891.00
359.96	2925.00
360.42	2898.00
360.89	2890.00
361.35	2873.00
361.82	2871.00
362.28	2901.00
362.75	2923.00
363.21	2934.00
363.67	2896.00
364.14	2933.00
364.60	2944.00
365.07	2956.00
365.53	2975.00
366.00	3006.00
366.46	3011.00
366.93	3012.00
367.39	2998.00
367.86	3011.00
368.32	2976.00
368.78	2978.00
369.25	3007.00
369.71	3031.00
370.18	3029.00
370.64	2995.00
371.11	2991.00
371.57	3025.00
372.03	2995.00
372.50	2938.00
372.96	2945.00
373.43	2928.00
373.89	2901.00
374.35	2950.00
374.82	2934.00
375.28	2963.00
375.75	3008.00
376.21	3026.00
376.67	3034.00
377.14	3057.00
377.60	3067.00
378.07	3106.00
378.53	3110.00
378.99	3065.00
379.46	3039.00
379.92	3009.00
380.39	3031.00
380.85	3050.00
381.31	3037.00
381.78	3005.00
382.24	2948.00
382.70	2947.00
383.17	2898.00
383.63	2923.00
384.09	2952.00
384.56	3004.00
385.02	3054.00
385.48	3052.00
385.95	3039.00
386.41	3017.00
386.88	3049.00
387.34	3055.00
387.80	3037.00
388.27	3100.00
388.73	3060.00
389.19	3098.00
389.66	3131.00
390.12	3182.00
390.58	3201.00
391.05	3157.00
391.51	3201.00
391.97	3163.00
392.43	3093.00
392.90	3032.00
393.36	2963.00
393.82	2945.00
394.29	3068.00
394.75	3111.00
395.21	3170.00
395.68	3201.00
396.14	3158.00
396.60	3098.00
397.07	3054.00
397.53	3131.00
397.99	3267.00
398.45	3405.00
398.92	3458.00
399.38	3478.00
399.84	3500.00
400.31	3490.00
400.77	3530.00
401.23	3526.00
401.69	3542.00
402.16	3574.00
402.62	3563.00
403.08	3582.00
403.54	3560.00
404.01	3559.00
404.47	3552.00
404.93	3545.00
405.39	3557.00
405.86	3550.00
406.32	3551.00
406.78	3535.00
407.24	3574.00
407.71	3573.00
408.17	3561.00
408.63	3614.00
409.09	3613.00
409.56	3677.00
410.02	3623.00
410.48	3587.00
410.94	3617.00
411.40	3695.00
411.87	3702.00
412.33	3768.00
412.79	3714.00
413.25	3718.00
413.71	3707.00
414.18	3767.00
414.64	3718.00
415.10	3758.00
415.56	3761.00
416.02	3746.00
416.49	3765.00
416.95	3756.00
417.41	3720.00
417.87	3728.00
418.33	3750.00
418.80	3761.00
419.26	3746.00
419.72	3807.00
420.18	3735.00
420.64	3762.00
421.10	3815.00
421.57	3843.00
422.03	3807.00
422.49	3805.00
422.95	3751.00
423.41	3757.00
423.87	3821.00
424.34	3787.00
424.80	3823.00
425.26	3813.00
425.72	3796.00
426.18	3767.00
426.64	3800.00
427.10	3772.00
427.57	3762.00
428.03	3715.00
428.49	3759.00
428.95	3715.00
429.41	3668.00
429.87	3684.00
430.33	3626.00
430.79	3580.00
431.26	3680.00
431.72	3774.00
432.18	3916.00
432.64	3869.00
433.10	3856.00
433.56	3899.00
434.02	3870.00
434.48	3865.00
434.94	3938.00
435.40	3960.00
435.87	4006.00
436.33	4046.00
436.79	3995.00
437.25	4015.00
437.71	3968.00
438.17	4005.00
438.63	3927.00
439.09	3951.00
439.55	4003.00
440.01	4039.00
440.47	4072.00
440.93	4080.00
441.39	4139.00
441.85	4179.00
442.32	4194.00
442.78	4211.00
443.24	4276.00
443.70	4178.00
444.16	4232.00
444.62	4213.00
445.08	4167.00
445.54	4250.00
446.00	4193.00
446.46	4231.00
446.92	4241.00
447.38	4288.00
447.84	4340.00
448.30	4326.00
448.76	4350.00
449.22	4345.00
449.68	4426.00
450.14	4468.00
450.60	4457.00
451.06	4476.00
451.52	4405.00
451.98	4427.00
452.44	4413.00
452.90	4408.00
453.36	4330.00
453.82	4387.00
454.28	4370.00
454.74	4453.00
455.20	4422.00
455.66	4434.00
456.12	4455.00
456.58	4507.00
457.04	4541.00
457.50	4494.00
457.96	4483.00
458.42	4512.00
458.88	4489.00
459.34	4519.00
459.80	4490.00
460.26	4540.00
460.72	4473.00
461.18	4549.00
461.64	4594.00
462.10	4611.00
462.55	4616.00
463.01	4584.00
463.47	4556.00
463.93	4580.00
464.39	4525.00
464.85	4532.00
465.31	4520.00
465.77	4532.00
466.23	4538.00
466.69	4528.00
467.15	4539.00
467.61	4552.00
468.07	4565.00
468.52	4600.00
468.98	4607.00
469.44	4581.00
469.90	4601.00
470.36	4655.00
470.82	4558.00
471.28	4641.00
471.74	4669.00
472.20	4672.00
472.66	4684.00
473.11	4721.00
473.57	4637.00
474.03	4645.00
474.49	4708.00
474.95	4654.00
475.41	4727.00
475.87	4651.00
476.33	4657.00
476.78	4677.00
477.24	4724.00
477.70	4717.00
478.16	4758.00
478.62	4763.00
479.08	4697.00
479.54	4755.00
479.99	4787.00
480.45	4787.00
480.91	4750.00
481.37	4758.00
481.83	4797.00
482.29	4816.00
482.74	4777.00
483.20	4756.00
483.66	4797.00
484.12	4737.00
484.58	4725.00
485.04	4628.00
485.49	4570.00
485.95	4538.00
486.41	4528.00
486.87	4476.00
487.33	4618.00
487.78	4639.00
488.24	4682.00
488.70	4771.00
489.16	4712.00
489.62	4769.00
490.07	4788.00
490.53	4842.00
490.99	4811.00
491.45	4773.00
491.90	4773.00
492.36	4779.00
492.82	4729.00
493.28	4850.00
493.74	4865.00
494.19	4865.00
494.65	4840.00
495.11	4874.00
495.57	4848.00
496.02	4845.00
496.48	4826.00
496.94	4877.00
497.40	4847.00
497.85	4793.00
498.31	4806.00
498.77	4824.00
499.23	4819.00
499.68	4824.00
500.14	4822.00
500.60	4745.00
501.06	4705.00
501.51	4744.00
501.97	4780.00
502.43	4769.00
502.88	4803.00
503.34	4821.00
503.80	4832.00
504.26	4789.00
504.71	4800.00
505.17	4900.00
505.63	4877.00
506.08	4920.00
506.54	4881.00
507.00	4909.00
507.45	4824.00
507.91	4844.00
508.37	4888.00
508.82	4883.00
509.28	4944.00
509.74	4931.00
510.19	4900.00
510.65	4939.00
511.11	4914.00
511.56	4950.00
512.02	4929.00
512.48	4931.00
512.93	4906.00
513.39	4924.00
513.85	4860.00
514.30	4861.00
514.76	4878.00
515.22	4876.00
515.67	4877.00
516.13	4793.00
516.59	4720.00
517.04	4709.00
517.50	4665.00
517.95	4665.00
518.41	4757.00
518.87	4811.00
519.32	4803.00
519.78	4940.00
520.24	4879.00
520.69	4950.00
521.15	4985.00
521.60	4967.00
522.06	4981.00
522.52	4965.00
522.97	4983.00
523.43	4940.00
523.88	5013.00
524.34	5065.00
524.80	5066.00
525.25	5100.00
525.71	4995.00
526.16	4900.00
526.62	4906.00
527.07	4864.00
527.53	4913.00
527.99	4918.00
528.44	5066.00
528.90	5103.00
529.35	5078.00
529.81	5149.00
530.26	5123.00
530.72	5147.00
531.17	5165.00
531.63	5094.00
532.09	5065.00
532.54	5035.00
533.00	5042.00
533.45	5045.00
533.91	5129.00
534.36	5080.00
534.82	5100.00
535.27	5182.00
535.73	5149.00
536.18	5120.00
536.64	5105.00
537.09	5104.00
537.55	5071.00
538.00	5129.00
538.46	5150.00
538.91	5154.00
539.37	5061.00
539.82	5015.00
540.28	5050.00
540.73	4984.00
541.19	5054.00
541.64	5046.00
542.10	5081.00
542.55	5107.00
543.01	5138.00
543.46	5128.00
543.92	5166.00
544.37	5121.00
544.83	5194.00
545.28	5148.00
545.74	5119.00
546.19	5190.00
546.64	5129.00
547.10	5152.00
547.55	5144.00
548.01	5063.00
548.46	5151.00
548.92	5139.00
549.37	5161.00
549.83	5184.00
550.28	5158.00
550.73	5207.00
551.19	5142.00
551.64	5182.00
552.10	5143.00
552.55	5163.00
553.00	5227.00
553.46	5192.00
553.91	5173.00
554.37	5216.00
554.82	5222.00
555.28	5207.00
555.73	5178.00
556.18	5145.00
556.64	5169.00
557.09	5143.00
557.54	5156.00
558.00	5182.00
558.45	5125.00
558.91	5075.00
559.36	5136.00
559.81	5083.00
560.27	5151.00
560.72	5187.00
561.17	5192.00
561.63	5161.00
562.08	5107.00
562.54	5170.00
562.99	5201.00
563.44	5185.00
563.90	5225.00
564.35	5179.00
564.80	5255.00
565.26	5136.00
565.71	5166.00
566.16	5146.00
566.62	5136.00
567.07	5149.00
567.52	5204.00
567.98	5166.00
568.43	5135.00
568.88	5116.00
569.34	5104.00
569.79	5182.00
570.24	5074.00
570.69	5166.00
571.15	5104.00
571.60	5097.00
572.05	5123.00
572.51	5216.00
572.96	5210.00
573.41	5184.00
573.86	5156.00
574.32	5302.00
574.77	5159.00
575.22	5190.00
575.68	5123.00
576.13	5149.00
576.58	5174.00
577.03	5186.00
577.49	5216.00
577.94	5179.00
578.39	5141.00
578.84	5139.00
579.30	5193.00
579.75	5232.00
580.20	5245.00
580.65	5234.00
581.11	5211.00
581.56	5260.00
582.01	5269.00
582.46	5264.00
582.92	5318.00
583.37	5335.00
583.82	5273.00
584.27	5266.00
584.72	5275.00
585.18	5262.00
585.63	5226.00
586.08	5220.00
586.53	5246.00
586.98	5261.00
587.44	5261.00
587.89	5179.00
588.34	5159.00
588.79	5044.00
589.24	4915.00
589.70	4990.00
590.15	5041.00
590.60	5123.00
591.05	5149.00
591.50	5207.00
591.96	5168.00
592.41	5201.00
592.86	5195.00
593.31	5216.00
593.76	5226.00
594.21	5155.00
594.66	5167.00
595.12	5165.00
595.57	5137.00
596.02	5244.00
596.47	5213.00
596.92	5196.00
597.37	5225.00
597.82	5206.00
598.28	5174.00
598.73	5217.00
599.18	5220.00
599.63	5170.00
600.08	5262.00
600.53	5159.00
600.98	5231.00
601.43	5186.00
601.88	5151.00
602.34	5132.00
602.79	5188.00
603.24	5252.00
603.69	5303.00
604.14	5291.00
604.59	5266.00
605.04	5238.00
605.49	5225.00
605.94	5237.00
606.39	5291.00
606.84	5294.00
607.30	5263.00
607.75	5291.00
608.20	5251.00
608.65	5262.00
609.10	5285.00
609.55	5211.00
610.00	5250.00
610.45	5210.00
610.90	5218.00
611.35	5292.00
611.80	5230.00
612.25	5267.00
612.70	5294.00
613.15	5244.00
613.60	5302.00
614.05	5246.00
614.50	5244.00
614.95	5237.00
615.40	5283.00
615.85	5193.00
616.30	5178.00
616.75	5137.00
617.20	5189.00
617.65	5193.00
618.10	5207.00
618.55	5277.00
619.00	5212.00
619.45	5284.00
619.90	5280.00
620.35	5322.00
620.80	5273.00
621.25	5278.00
621.70	5293.00
622.15	5250.00
622.60	5255.00
623.05	5208.00
623.50	5191.00
623.95	5208.00
624.40	5150.00
624.85	5122.00
625.30	5215.00
625.75	5175.00
626.20	5260.00
626.65	5203.00
627.10	5207.00
627.55	5191.00
627.99	5133.00
628.44	5116.00
628.89	5220.00
629.34	5175.00
629.79	5160.00
630.24	5165.00
630.69	5156.00
631.14	5147.00
631.59	5213.00
632.04	5164.00
632.49	5162.00
632.94	5252.00
633.38	5221.00
633.83	5185.00
634.28	5269.00
634.73	5275.00
635.18	5242.00
635.63	5368.00
636.08	5270.00
636.53	5293.00
636.97	5318.00
637.42	5351.00
637.87	5335.00
638.32	5319.00
638.77	5316.00
639.22	5325.00
639.67	5302.00
640.11	5274.00
640.56	5250.00
641.01	5214.00
641.46	5191.00
641.91	5235.00
642.36	5300.00
642.81	5305.00
643.25	5320.00
643.70	5340.00
644.15	5342.00
644.60	5278.00
645.05	5291.00
645.49	5257.00
645.94	5234.00
646.39	5224.00
646.84	5190.00
647.29	5244.00
647.73	5202.00
648.18	5169.00
648.63	5258.00
649.08	5185.00
649.53	5194.00
649.97	5233.00
650.42	5231.00
650.87	5245.00
651.32	5304.00
651.77	5185.00
652.21	5224.00
652.66	5265.00
653.11	5266.00
653.56	5257.00
654.00	5245.00
654.45	5250.00
654.90	5174.00
655.35	5098.00
655.79	5047.00
656.24	4835.00
656.69	4829.00
657.14	4941.00
657.58	5124.00
658.03	5242.00
658.48	5175.00
658.92	5262.00
659.37	5251.00
659.82	5262.00
660.27	5301.00
660.71	5290.00
661.16	5331.00
661.61	5279.00
662.05	5305.00
662.50	5330.00
662.95	5338.00
663.39	5247.00
663.84	5265.00
664.29	5315.00
664.74	5333.00
665.18	5362.00
665.63	5336.00
666.08	5283.00
666.52	5257.00
666.97	5268.00
667.42	5256.00
667.86	5329.00
668.31	5287.00
668.76	5291.00
669.20	5328.00
669.65	5327.00
670.09	5230.00
670.54	5258.00
670.99	5281.00
671.43	5282.00
671.88	5262.00
672.33	5264.00
672.77	5232.00
673.22	5331.00
673.66	5287.00
674.11	5271.00
674.56	5245.00
675.00	5247.00
675.45	5245.00
675.90	5350.00
676.34	5265.00
676.79	5263.00
677.23	5252.00
677.68	5199.00
678.12	5248.00
678.57	5238.00
679.02	5254.00
679.46	5198.00
679.91	5272.00
680.35	5208.00
680.80	5236.00
681.25	5179.00
681.69	5246.00
682.14	5162.00
682.58	5215.00
683.03	5216.00
683.47	5252.00
683.92	5179.00
684.36	5195.00
684.81	5178.00
685.25	5140.00
685.70	5141.00
686.15	5107.00
686.59	4897.00
687.04	4497.00
687.48	4402.00
687.93	4580.00
688.37	4666.00
688.82	4726.00
689.26	4739.00
689.71	4736.00
690.15	4750.00
690.60	4795.00
691.04	4857.00
691.49	4906.00
691.93	4958.00
692.38	4934.00
692.82	4948.00
693.27	4957.00
693.71	4900.00
694.16	4905.00
694.60	4902.00
695.04	4953.00
695.49	4931.00
695.93	4954.00
696.38	4986.00
696.82	5069.00
697.27	5088.00
697.71	5047.00
698.16	5043.00
698.60	5035.00
699.04	4959.00
699.49	4984.00
699.93	4974.00
700.38	4873.00
700.82	4902.00
701.27	4927.00
701.71	4913.00
702.15	4974.00
702.60	4977.00
703.04	4968.00
703.49	5008.00
703.93	4980.00
704.37	5014.00
704.82	5040.00
705.26	5003.00
705.71	5005.00
706.15	5023.00
706.59	5030.00
707.04	5021.00
707.48	5043.00
707.93	4993.00
708.37	5034.00
708.81	5030.00
709.26	5044.00
709.70	5013.00
710.14	5039.00
710.59	5060.00
711.03	5037.00
711.47	4998.00
711.92	5037.00
712.36	4953.00
712.80	4999.00
713.25	5031.00
713.69	4977.00
714.13	5005.00
714.58	4951.00
715.02	4953.00
715.46	4925.00
715.91	4926.00
716.35	4829.00
716.79	4647.00
717.24	4509.00
717.68	4451.00
718.12	4391.00
718.57	4331.00
719.01	4291.00
719.45	4280.00
719.89	4283.00
720.34	4267.00
720.78	4383.00
721.22	4589.00
721.66	4653.00
722.11	4676.00
722.55	4711.00
722.99	4608.00
723.44	4509.00
723.88	4434.00
724.32	4422.00
724.76	4427.00
725.21	4441.00
725.65	4439.00
726.09	4447.00
726.53	4478.00
726.97	4491.00
727.42	4471.00
727.86	4380.00
728.30	4480.00
728.74	4524.00
729.19	4435.00
729.63	4441.00
730.07	4510.00
730.51	4419.00
730.95	4466.00
731.40	4505.00
731.84	4541.00
732.28	4642.00
732.72	4701.00
733.16	4706.00
733.61	4665.00
734.05	4766.00
734.49	4745.00
734.93	4720.00
735.37	4746.00
735.81	4717.00
736.26	4750.00
736.70	4764.00
737.14	4742.00
737.58	4749.00
738.02	4749.00
738.46	4730.00
738.90	4690.00
739.35	4720.00
739.79	4692.00
740.23	4791.00
740.67	4760.00
741.11	4751.00
741.55	4701.00
741.99	4715.00
742.44	4711.00
742.88	4729.00
743.32	4776.00
743.76	4805.00
744.20	4744.00
744.64	4765.00
745.08	4791.00
745.52	4779.00
745.96	4776.00
746.40	4802.00
746.84	4765.00
747.29	4773.00
747.73	4726.00
748.17	4795.00
748.61	4797.00
749.05	4743.00
749.49	4784.00
749.93	4788.00
750.37	4839.00
750.81	4818.00
751.25	4785.00
751.69	4830.00
752.13	4821.00
752.57	4805.00
753.01	4703.00
753.45	4761.00
753.89	4770.00
754.33	4838.00
754.77	4780.00
755.21	4774.00
755.65	4783.00
756.09	4768.00
756.53	4837.00
756.97	4803.00
757.41	4764.00
757.85	4759.00
758.29	4747.00
758.73	4665.00
759.17	4539.00
759.61	3935.00
760.05	3327.00
760.49	3002.00
760.93	2946.00
761.37	3097.00
761.81	3508.00
762.25	3614.00
762.69	3499.00
763.13	3338.00
763.57	3373.00
764.01	3467.00
764.45	3567.00
764.89	3699.00
765.33	3923.00
765.77	4011.00
766.21	4111.00
766.65	4289.00
767.09	4373.00
767.53	4454.00
767.96	4552.00
768.40	4579.00
768.84	4553.00
769.28	4597.00
769.72	4604.00
770.16	4614.00
770.60	4709.00
771.04	4711.00
771.48	4685.00
771.92	4669.00
772.35	4713.00
772.79	4697.00
773.23	4700.00
773.67	4744.00
774.11	4662.00
774.55	4654.00
774.99	4631.00
775.43	4651.00
775.86	4663.00
776.30	4665.00
776.74	4713.00
777.18	4657.00
777.62	4717.00
778.06	4645.00
778.50	4608.00
778.93	4633.00
779.37	4653.00
779.81	4618.00
780.25	4592.00
780.69	4653.00
781.12	4614.00
781.56	4616.00
782.00	4571.00
782.44	4647.00
782.88	4612.00
783.32	4605.00
783.75	4665.00
784.19	4578.00
784.63	4572.00
785.07	4578.00
785.50	4585.00
785.94	4561.00
786.38	4517.00
786.82	4567.00
787.26	4504.00
787.69	4478.00
788.13	4521.00
788.57	4514.00
789.01	4514.00
789.44	4483.00
789.88	4494.00
790.32	4445.00
790.76	4451.00
791.19	4432.00
791.63	4444.00
792.07	4434.00
792.51	4379.00
792.94	4368.00
793.38	4408.00
793.82	4447.00
794.25	4457.00
794.69	4460.00
795.13	4457.00
795.56	4424.00
796.00	4375.00
796.44	4316.00
796.88	4389.00
797.31	4377.00
797.75	4323.00
798.19	4392.00
798.62	4380.00
799.06	4374.00
799.50	4402.00
799.93	4311.00
800.37	4289.00
800.81	4370.00
801.24	4353.00
801.68	4337.00
802.12	4326.00
802.55	4326.00
802.99	4331.00
803.43	4288.00
803.86	4352.00
804.30	4283.00
804.73	4298.00
805.17	4303.00
805.61	4351.00
806.04	4333.00
806.48	4353.00
806.92	4363.00
807.35	4326.00
807.79	4318.00
808.22	4267.00
808.66	4245.00
809.10	4228.00
809.53	4214.00
809.97	4202.00
810.40	4178.00
810.84	4225.00
811.27	4195.00
811.71	4197.00
812.15	4171.00
812.58	4166.00
813.02	4070.00
813.45	4018.00
813.89	4031.00
814.32	3979.00
814.76	3907.00
815.19	3847.00
815.63	3867.00
816.07	3794.00
816.50	3788.00
816.94	3827.00
817.37	3901.00
817.81	3820.00
818.24	3821.00
818.68	3894.00
819.11	3915.00
819.55	3905.00
819.98	3861.00
820.42	3953.00
820.85	4013.00
821.29	4019.00
821.72	3964.00
822.16	3907.00
822.59	3731.00
823.03	3587.00
823.46	3692.00
823.90	3873.00
824.33	3982.00
824.77	4019.00
825.20	4005.00
825.63	4003.00
826.07	3985.00
826.50	4026.00
826.94	4023.00
827.37	3940.00
827.81	3877.00
828.24	3902.00
828.68	3889.00
829.11	3852.00
829.54	3910.00
829.98	3935.00
830.41	3920.00
830.85	3991.00
831.28	3968.00
831.71	3959.00
832.15	3909.00
832.58	3997.00
833.02	3964.00
833.45	3914.00
833.88	3953.00
834.32	3939.00
834.75	4013.00
835.19	4016.00
835.62	3950.00
836.05	3981.00
836.49	4012.00
836.92	4001.00
837.35	3981.00
837.79	4069.00
838.22	4070.00
838.66	4044.00
839.09	4113.00
839.52	4129.00
839.96	4109.00
840.39	4055.00
840.82	4090.00
841.26	4051.00
841.69	4045.00
842.12	4082.00
842.56	4047.00
842.99	4010.00
843.42	4053.00
843.85	4072.00
844.29	4060.00
844.72	4079.00
845.15	4060.00
845.59	4131.00
846.02	4113.00
846.45	4100.00
846.88	4067.00
847.32	4086.00
847.75	4070.00
848.18	4059.00
848.62	4021.00
849.05	4026.00
849.48	3925.00
849.91	3907.00
850.35	3947.00
850.78	4048.00
851.21	3999.00
851.64	4019.00
852.08	4042.00
852.51	4011.00
852.94	4015.00
853.37	4011.00
853.80	3855.00
854.24	3704.00
854.67	3841.00
855.10	3933.00
855.53	3998.00
855.97	3964.00
856.40	3987.00
856.83	4030.00
857.26	3987.00
857.69	4036.00
858.13	4000.00
858.56	4047.00
858.99	4032.00
859.42	4038.00
859.85	4077.00
860.28	4018.00
860.72	4010.00
861.15	4014.00
861.58	3978.00
862.01	3939.00
862.44	3971.00
862.87	3997.00
863.30	3982.00
863.74	3984.00
864.17	4027.00
864.60	3975.00
865.03	3959.00
865.46	3927.00
865.89	3836.00
866.32	3786.00
866.75	3850.00
867.19	3954.00
867.62	4009.00
868.05	4020.00
868.48	3960.00
868.91	3950.00
869.34	3971.00
869.77	3943.00
870.20	3991.00
870.63	3946.00
871.06	3898.00
871.49	3945.00
871.93	3969.00
872.36	3932.00
872.79	3956.00
873.22	3899.00
873.65	3975.00
874.08	3906.00
874.51	3935.00
874.94	3914.00
875.37	3940.00
875.80	3948.00
876.23	3922.00
876.66	3919.00
877.09	3914.00
877.52	3889.00
877.95	3892.00
878.38	3908.00
878.81	3863.00
879.24	3898.00
879.67	3881.00
880.10	3869.00
880.53	3900.00
880.96	3876.00
881.39	3934.00
881.82	3925.00
882.25	3907.00
882.68	3908.00
883.11	3911.00
883.54	3912.00
883.97	3933.00
884.40	3913.00
884.83	3894.00
885.26	3909.00
885.69	3829.00
886.12	3842.00
886.55	3871.00
886.98	3835.00
887.40	3927.00
887.83	3880.00
888.26	3892.00
888.69	3893.00
889.12	3895.00
889.55	3893.00
889.98	3864.00
890.41	3895.00
890.84	3936.00
891.27	3878.00
891.70	3859.00
892.12	3841.00
892.55	3796.00
892.98	3754.00
893.41	3781.00
893.84	3779.00
894.27	3737.00
894.70	3655.00
895.13	3638.00
895.55	3690.00
895.98	3580.00
896.41	3534.00
896.84	3532.00
897.27	3555.00
897.70	3598.00
898.13	3578.00
898.55	3380.00
898.98	3415.00
899.41	3543.00
899.84	3479.00
900.27	3467.00
900.70	3467.00
901.12	3474.00
901.55	3445.00
901.98	3474.00
902.41	3537.00
902.84	3569.00
903.26	3641.00
903.69	3675.00
904.12	3639.00
904.55	3644.00
904.97	3647.00
905.40	3638.00
905.83	3590.00
906.26	3502.00
906.69	3448.00
907.11	3471.00
907.54	3463.00
907.97	3460.00
908.40	3450.00
908.82	3428.00
909.25	3411.00
909.68	3425.00
910.10	3427.00
910.53	3429.00
910.96	3525.00
911.39	3442.00
911.81	3486.00
912.24	3493.00
912.67	3360.00
913.09	3332.00
913.52	3392.00
913.95	3466.00
914.38	3464.00
914.80	3358.00
915.23	3348.00
915.66	3450.00
916.08	3508.00
916.51	3418.00
916.94	3376.00
917.36	3393.00
917.79	3438.00
918.22	3450.00
918.64	3484.00
919.07	3462.00
919.50	3511.00
919.92	3525.00
920.35	3513.00
920.78	3494.00
921.20	3429.00
921.63	3489.00
922.05	3498.00
922.48	3477.00
922.91	3430.00
923.33	3426.00
923.76	3422.00
924.18	3444.00
924.61	3418.00
925.04	3452.00
925.46	3401.00
925.89	3427.00
926.31	3417.00
926.74	3375.00
927.17	3286.00
927.59	3227.00
928.02	3209.00
928.44	3171.00
928.87	3141.00
929.29	3108.00
929.72	3071.00
930.15	3064.00
930.57	3029.00
931.00	2957.00
931.42	2913.00
931.85	2857.00
932.27	2840.00
932.70	2844.00
933.12	2789.00
933.55	2767.00
933.97	2766.00
934.40	2867.00
934.82	2808.00
935.25	2785.00
935.67	2803.00
936.10	2779.00
936.52	2746.00
936.95	2788.00
937.37	2762.00
937.80	2804.00
938.22	2857.00
938.65	2913.00
939.07	2926.00
939.50	2885.00
939.92	2862.00
940.35	2840.00
940.77	2832.00
941.19	2840.00
941.62	2823.00
942.04	2804.00
942.47	2780.00
942.89	2816.00
943.32	2754.00
943.74	2746.00
944.16	2819.00
944.59	2807.00
945.01	2767.00
945.44	2778.00
945.86	2800.00
946.29	2803.00
946.71	2823.00
947.13	2825.00
947.56	2807.00
947.98	2854.00
948.40	2855.00
948.83	2818.00
949.25	2759.00
949.68	2817.00
950.10	2906.00
950.52	2915.00
950.95	2858.00
951.37	2814.00
951.79	2797.00
952.22	2862.00
952.64	2896.00
953.06	2894.00
953.49	2880.00
953.91	2865.00
954.33	2894.00
954.76	2860.00
955.18	2914.00
955.60	2869.00
956.03	2878.00
956.45	2949.00
956.87	2997.00
957.30	2932.00
957.72	2950.00
958.14	2897.00
958.56	2876.00
958.99	2927.00
959.41	2963.00
959.83	2973.00
960.26	3011.00
960.68	3037.00
961.10	2993.00
961.52	2938.00
961.95	2989.00
962.37	3069.00
962.79	3023.00
963.21	3019.00
963.64	3000.00
964.06	3069.00
964.48	3065.00
964.90	3072.00
965.32	3035.00
965.75	3048.00
966.17	3090.00
966.59	3145.00
967.01	3175.00
967.44	3140.00
967.86	3146.00
968.28	3177.00
968.70	3194.00
969.12	3181.00
969.54	3225.00
969.97	3206.00
970.39	3172.00
970.81	3213.00
971.23	3191.00
971.65	3158.00
972.07	3183.00
972.50	3150.00
972.92	3116.00
973.34	3122.00
973.76	3162.00
974.18	3152.00
974.60	3132.00
975.02	3136.00
975.45	3120.00
975.87	3166.00
976.29	3178.00
976.71	3177.00
977.13	3155.00
977.55	3147.00
977.97	3155.00
978.39	3151.00
978.81	3171.00
979.24	3158.00
979.66	3198.00
980.08	3203.00
980.50	3197.00
980.92	3199.00
981.34	3178.00
981.76	3180.00
982.18	3192.00
982.60	3226.00
983.02	3211.00
983.44	3214.00
983.86	3190.00
984.28	3194.00
984.70	3218.00
985.12	3198.00
985.54	3211.00
985.96	3183.00
986.38	3179.00
986.80	3193.00
987.23	3196.00
987.65	3188.00
988.07	3209.00
988.49	3197.00
988.91	3174.00
989.33	3187.00
989.74	3199.00
990.16	3180.00
990.58	3184.00
991.00	3172.00
991.42	3209.00
991.84	3190.00
992.26	3191.00
992.68	3165.00
993.10	3212.00
993.52	3179.00
993.94	3182.00
994.36	3151.00
994.78	3152.00
995.20	3134.00
995.62	3184.00
996.04	3183.00
996.46	3164.00
996.88	3181.00
997.30	3170.00
997.71	3183.00
998.13	3183.00
998.55	3165.00
998.97	3200.00
999.39	3168.00
999.81	3200.00
1000.23	3187.00
1000.65	3183.00
1001.07	3189.00
1001.49	3171.00
1001.90	3195.00
1002.32	3150.00
1002.74	3180.00
1003.16	3165.00
1003.58	3134.00
1004.00	3143.00
1004.42	3146.00
1004.83	3174.00
1005.25	3147.00
1005.67	3156.00
1006.09	3153.00
1006.51	3158.00
1006.92	3133.00
1007.34	3154.00
1007.76	3149.00
1008.18	3142.00
1008.60	3139.00
1009.02	3157.00
1009.43	3138.00
1009.85	3146.00
1010.27	3138.00
1010.69	3145.00
1011.10	3115.00
1011.52	3131.00
1011.94	3129.00
1012.36	3096.00
1012.78	3104.00
1013.19	3073.00
1013.61	3107.00
1014.03	3083.00
1014.45	3097.00
1014.86	3098.00
1015.28	3080.00
1015.70	3075.00
1016.12	3078.00
1016.53	3054.00
1016.95	3068.00
1017.37	3059.00
1017.78	3048.00
1018.20	3069.00
1018.62	3045.00
1019.03	3041.00
1019.45	3038.00
1019.87	3033.00
1020.29	3064.00
1020.70	3029.00
1021.12	3030.00
1021.54	3019.00
1021.95	3016.00
1022.37	3033.00
1022.79	3005.00
1023.20	3009.00
1023.62	3001.00
1024.04	2994.00
1024.45	2984.00
1024.87	2978.00
1025.28	2980.00
1025.70	2982.00
1026.12	2988.00
1026.53	2961.00
1026.95	2966.00
1027.37	2982.00
1027.78	2972.00
1028.20	2972.00
1028.61	2957.00
1029.03	2931.00
1029.45	2965.00
1029.86	2925.00
1030.28	2938.00
1030.69	2938.00
1031.11	2931.00
1031.53	2920.00
1031.94	2922.00
1032.36	2931.00
1032.77	2921.00
1033.19	2935.00
1033.60	2896.00
1034.02	2898.00
1034.43	2908.00
1034.85	2891.00
1035.27	2893.00
1035.68	2890.00
1036.10	2886.00
1036.51	2892.00
1036.93	2894.00
1037.34	2868.00
1037.76	2880.00
1038.17	2867.00
1038.59	2867.00
1039.00	2869.00
1039.42	2849.00
1039.83	2858.00
1040.25	2851.00
1040.66	2856.00
1041.08	2850.00
1041.49	2850.00
1041.91	2859.00
1042.32	2851.00
1042.73	2850.00
1043.15	2821.00
1043.56	2827.00
1043.98	2821.00
1044.39	2836.00
1044.81	2832.00
1045.22	2810.00
1045.64	2806.00
1046.05	2821.00
1046.46	2800.00
1046.88	2819.00
1047.29	2798.00
1047.71	2808.00
1048.12	2805.00
1048.53	2792.00
1048.95	2795.00
1049.36	2797.00
1049.78	2787.00
1050.19	2789.00
1050.60	2799.00
1051.02	2778.00
1051.43	2767.00
1051.85	2764.00
1052.26	2767.00
1052.67	2776.00
1053.09	2767.00
1053.50	2777.00
1053.91	2759.00
1054.33	2742.00
1054.74	2753.00
1055.15	2751.00
1055.57	2746.00
1055.98	2747.00
1056.39	2725.00
1056.81	2746.00
1057.22	2740.00
1057.63	2738.00
1058.05	2722.00
1058.46	2731.00
1058.87	2747.00
1059.28	2730.00
1059.70	2730.00
1060.11	2730.00
1060.52	2743.00
1060.94	2716.00
1061.35	2725.00
1061.76	2714.00
1062.17	2702.00
1062.59	2719.00
1063.00	2717.00
1063.41	2708.00
1063.82	2710.00
1064.24	2718.00
1064.65	2702.00
1065.06	2702.00
1065.47	2701.00
1065.89	2703.00
1066.30	2692.00
1066.71	2687.00
1067.12	2704.00
1067.53	2710.00
1067.95	2671.00
1068.36	2693.00
1068.77	2684.00
1069.18	2697.00
1069.59	2684.00
1070.00	2686.00
1070.42	2686.00
1070.83	2671.00
1071.24	2682.00
1071.65	2686.00
1072.06	2688.00
1072.47	2667.00
1072.89	2686.00
1073.30	2670.00
1073.71	2666.00
1074.12	2663.00
1074.53	2676.00
1074.94	2659.00
1075.35	2666.00
1075.77	2667.00
1076.18	2660.00
1076.59	2662.00
1077.00	2650.00
1077.41	2653.00
1077.82	2655.00
1078.23	2652.00
1078.64	2641.00
1079.05	2654.00
1079.46	2651.00
1079.87	2643.00
1080.29	2655.00
1080.70	2635.00
1081.11	2651.00
1081.52	2637.00
1081.93	2650.00
1082.34	2645.00
1082.75	2630.00
1083.16	2646.00
1083.57	2637.00
1083.98	2641.00
1084.39	2646.00
1084.80	2635.00
1085.21	2634.00
1085.62	2636.00
1086.03	2642.00
1086.44	2642.00
1086.85	2628.00
1087.26	2623.00
1087.67	2631.00
1088.08	2623.00
1088.49	2629.00
1088.90	2625.00
1089.31	2632.00
1089.72	2620.00
1090.13	2621.00
1090.54	2630.00
1090.95	2619.00
1091.36	2618.00
1091.77	2618.00
1092.18	2610.00
1092.59	2615.00
1093.00	2619.00
1093.40	2604.00
1093.81	2616.00
1094.22	2613.00
1094.63	2610.00
1095.04	2600.00
1095.45	2606.00
1095.86	2614.00
1096.27	2602.00
1096.68	2598.00
1097.09	2610.00
1097.50	2605.00
1097.90	2603.00
1098.31	2603.00
1098.72	2605.00
1099.13	2602.00
1099.54	2605.00
1099.95	2592.00
1100.36	2603.00
1100.76	2598.00
1101.17	2595.00
1101.58	2597.00
1101.99	2593.00
1102.40	2599.00
1102.81	2593.00
1103.22	2597.00
1103.62	2598.00
1104.03	2591.00
1104.44	2591.00
1104.85	2585.00
1105.26	2591.00
1105.66	2585.00
1106.07	2583.00
1106.48	2592.00
1106.89	2580.00
1107.30	2578.00
1107.70	2582.00
1108.11	2586.00
1108.52	2588.00
1108.93	2587.00
1109.33	2581.00
1109.74	2586.00
1110.15	2577.00
1110.56	2583.00
1110.96	2583.00
1111.37	2589.00
1111.78	2584.00
1112.19	2583.00
1112.59	2587.00
1113.00	2587.00
1113.41	2581.00
1113.81	2585.00
1114.22	2577.00
1114.63	2559.00
1115.03	2560.00
1115.44	2563.00
1115.85	2557.00
>>>>>End Processed Spectral Data<<<<<
