SpectraSuite Data File
++++++++++++++++++++++++++++++++++++
Date: Thu Aug 05 10:45:31 EEST 2021
User: CanSEE
Dark Spectrum Present: No
Reference Spectrum Present: No
Number of Sampled Component Spectra: 1
Spectrometers: MAYP112785
Integration Time (usec): 10000 (MAYP112785)
Spectra Averaged: 1 (MAYP112785)
Boxcar Smoothing: 0 (MAYP112785)
Correct for Electrical Dark: No (MAYP112785)
Strobe/Lamp Enabled: No (MAYP112785)
Correct for Detector Non-linearity: No (MAYP112785)
Correct for Stray Light: No (MAYP112785)
Number of Pixels in Processed Spectrum: 2068
>>>>>Begin Processed Spectral Data<<<<<
198.35	3479.00
198.82	2487.00
199.30	2591.00
199.77	2573.00
200.24	2596.00
200.71	2595.00
201.18	2602.00
201.65	2611.00
202.13	2604.00
202.60	2606.00
203.07	2609.00
203.54	2608.00
204.01	2601.00
204.48	2610.00
204.96	2602.00
205.43	2600.00
205.90	2610.00
206.37	2606.00
206.84	2606.00
207.31	2602.00
207.78	2601.00
208.26	2607.00
208.73	2606.00
209.20	2606.00
209.67	2614.00
210.14	2606.00
210.61	2610.00
211.08	2614.00
211.56	2616.00
212.03	2597.00
212.50	2612.00
212.97	2595.00
213.44	2605.00
213.91	2604.00
214.38	2606.00
214.85	2605.00
215.33	2604.00
215.80	2601.00
216.27	2607.00
216.74	2604.00
217.21	2613.00
217.68	2600.00
218.15	2611.00
218.62	2607.00
219.09	2608.00
219.57	2602.00
220.04	2599.00
220.51	2602.00
220.98	2606.00
221.45	2604.00
221.92	2604.00
222.39	2601.00
222.86	2606.00
223.33	2605.00
223.80	2604.00
224.27	2609.00
224.74	2603.00
225.22	2611.00
225.69	2608.00
226.16	2609.00
226.63	2605.00
227.10	2607.00
227.57	2609.00
228.04	2601.00
228.51	2605.00
228.98	2605.00
229.45	2602.00
229.92	2602.00
230.39	2608.00
230.86	2609.00
231.33	2615.00
231.80	2609.00
232.27	2606.00
232.75	2610.00
233.22	2612.00
233.69	2598.00
234.16	2603.00
234.63	2602.00
235.10	2608.00
235.57	2603.00
236.04	2610.00
236.51	2611.00
236.98	2601.00
237.45	2605.00
237.92	2604.00
238.39	2608.00
238.86	2605.00
239.33	2677.00
239.80	2603.00
240.27	2611.00
240.74	2605.00
241.21	2617.00
241.68	2605.00
242.15	2602.00
242.62	2603.00
243.09	2604.00
243.56	2602.00
244.03	2614.00
244.50	2608.00
244.97	2610.00
245.44	2628.00
245.91	2598.00
246.38	2606.00
246.85	2605.00
247.32	2614.00
247.79	2598.00
248.26	2618.00
248.73	2599.00
249.20	2606.00
249.67	2603.00
250.14	2602.00
250.61	2611.00
251.08	2609.00
251.55	2612.00
252.02	2598.00
252.49	2609.00
252.96	2600.00
253.43	2608.00
253.90	2610.00
254.37	2597.00
254.84	2609.00
255.31	2611.00
255.77	2600.00
256.24	2608.00
256.71	2600.00
257.18	2615.00
257.65	2614.00
258.12	2611.00
258.59	2610.00
259.06	2610.00
259.53	2609.00
260.00	2611.00
260.47	2613.00
260.94	2608.00
261.41	2605.00
261.88	2611.00
262.35	2607.00
262.81	2601.00
263.28	2610.00
263.75	2616.00
264.22	2608.00
264.69	2610.00
265.16	2611.00
265.63	2610.00
266.10	2605.00
266.57	2607.00
267.04	2609.00
267.51	2614.00
267.97	2609.00
268.44	2597.00
268.91	2612.00
269.38	2613.00
269.85	2607.00
270.32	2598.00
270.79	2605.00
271.26	2614.00
271.73	2609.00
272.19	2604.00
272.66	2610.00
273.13	2615.00
273.60	2605.00
274.07	2602.00
274.54	2601.00
275.01	2609.00
275.48	2604.00
275.94	2606.00
276.41	2620.00
276.88	2607.00
277.35	2607.00
277.82	2606.00
278.29	2612.00
278.76	2600.00
279.22	2613.00
279.69	2606.00
280.16	2618.00
280.63	2601.00
281.10	2609.00
281.57	2603.00
282.04	2597.00
282.50	2602.00
282.97	2606.00
283.44	2604.00
283.91	2611.00
284.38	2612.00
284.85	2612.00
285.31	2605.00
285.78	2602.00
286.25	2615.00
286.72	2615.00
287.19	2609.00
287.65	2606.00
288.12	2610.00
288.59	2604.00
289.06	2610.00
289.53	2603.00
289.99	2607.00
290.46	2619.00
290.93	2612.00
291.40	2598.00
291.87	2600.00
292.33	2607.00
292.80	2596.00
293.27	2599.00
293.74	2603.00
294.21	2605.00
294.67	2607.00
295.14	2604.00
295.61	2612.00
296.08	2614.00
296.54	2606.00
297.01	2610.00
297.48	2611.00
297.95	2605.00
298.42	2615.00
298.88	2610.00
299.35	2605.00
299.82	2610.00
300.29	2605.00
300.75	2605.00
301.22	2609.00
301.69	2613.00
302.16	2611.00
302.62	2606.00
303.09	2610.00
303.56	2604.00
304.03	2613.00
304.49	2610.00
304.96	2612.00
305.43	2625.00
305.90	2609.00
306.36	2618.00
306.83	2612.00
307.30	2613.00
307.76	2621.00
308.23	2622.00
308.70	2625.00
309.17	2619.00
309.63	2628.00
310.10	2629.00
310.57	2633.00
311.03	2632.00
311.50	2644.00
311.97	2652.00
312.44	2641.00
312.90	2645.00
313.37	2669.00
313.84	2656.00
314.30	2658.00
314.77	2669.00
315.24	2667.00
315.70	2679.00
316.17	2655.00
316.64	2675.00
317.10	2688.00
317.57	2701.00
318.04	2694.00
318.50	2695.00
318.97	2696.00
319.44	2715.00
319.90	2712.00
320.37	2723.00
320.84	2720.00
321.30	2719.00
321.77	2721.00
322.24	2729.00
322.70	2737.00
323.17	2731.00
323.64	2721.00
324.10	2732.00
324.57	2761.00
325.04	2750.00
325.50	2777.00
325.97	2783.00
326.44	2808.00
326.90	2804.00
327.37	2818.00
327.84	2800.00
328.30	2799.00
328.77	2817.00
329.23	2832.00
329.70	2852.00
330.17	2863.00
330.63	2843.00
331.10	2839.00
331.56	2845.00
332.03	2804.00
332.50	2829.00
332.96	2844.00
333.43	2818.00
333.90	2839.00
334.36	2837.00
334.83	2824.00
335.29	2841.00
335.76	2831.00
336.22	2840.00
336.69	2820.00
337.16	2809.00
337.62	2820.00
338.09	2836.00
338.55	2860.00
339.02	2843.00
339.49	2864.00
339.95	2874.00
340.42	2889.00
340.88	2886.00
341.35	2874.00
341.81	2872.00
342.28	2872.00
342.75	2891.00
343.21	2884.00
343.68	2861.00
344.14	2857.00
344.61	2830.00
345.07	2869.00
345.54	2897.00
346.00	2896.00
346.47	2906.00
346.93	2886.00
347.40	2909.00
347.87	2905.00
348.33	2911.00
348.80	2936.00
349.26	2942.00
349.73	2921.00
350.19	2938.00
350.66	2987.00
351.12	2947.00
351.59	2960.00
352.05	2933.00
352.52	2949.00
352.98	2936.00
353.45	2981.00
353.91	2998.00
354.38	2986.00
354.84	2999.00
355.31	2971.00
355.77	2950.00
356.24	2957.00
356.70	2941.00
357.17	2919.00
357.63	2882.00
358.10	2910.00
358.56	2893.00
359.03	2893.00
359.49	2957.00
359.96	2977.00
360.42	2993.00
360.89	2952.00
361.35	2952.00
361.82	2961.00
362.28	2967.00
362.75	2980.00
363.21	3001.00
363.67	3016.00
364.14	3019.00
364.60	3032.00
365.07	3012.00
365.53	3042.00
366.00	3090.00
366.46	3099.00
366.93	3063.00
367.39	3064.00
367.86	3079.00
368.32	3070.00
368.78	3045.00
369.25	3089.00
369.71	3114.00
370.18	3076.00
370.64	3086.00
371.11	3088.00
371.57	3068.00
372.03	3091.00
372.50	3064.00
372.96	3062.00
373.43	3054.00
373.89	3012.00
374.35	3016.00
374.82	3042.00
375.28	3052.00
375.75	3125.00
376.21	3151.00
376.67	3133.00
377.14	3162.00
377.60	3178.00
378.07	3235.00
378.53	3215.00
378.99	3184.00
379.46	3164.00
379.92	3157.00
380.39	3115.00
380.85	3175.00
381.31	3151.00
381.78	3113.00
382.24	3069.00
382.70	3019.00
383.17	2999.00
383.63	3010.00
384.09	3028.00
384.56	3101.00
385.02	3161.00
385.48	3154.00
385.95	3152.00
386.41	3146.00
386.88	3156.00
387.34	3204.00
387.80	3171.00
388.27	3156.00
388.73	3201.00
389.19	3224.00
389.66	3284.00
390.12	3301.00
390.58	3339.00
391.05	3334.00
391.51	3319.00
391.97	3291.00
392.43	3213.00
392.90	3147.00
393.36	3085.00
393.82	3083.00
394.29	3159.00
394.75	3270.00
395.21	3320.00
395.68	3375.00
396.14	3348.00
396.60	3241.00
397.07	3172.00
397.53	3259.00
397.99	3404.00
398.45	3566.00
398.92	3657.00
399.38	3665.00
399.84	3687.00
400.31	3744.00
400.77	3744.00
401.23	3759.00
401.69	3837.00
402.16	3782.00
402.62	3802.00
403.08	3770.00
403.54	3762.00
404.01	3778.00
404.47	3813.00
404.93	3752.00
405.39	3755.00
405.86	3808.00
406.32	3790.00
406.78	3759.00
407.24	3795.00
407.71	3814.00
408.17	3810.00
408.63	3847.00
409.09	3863.00
409.56	3868.00
410.02	3848.00
410.48	3815.00
410.94	3895.00
411.40	3952.00
411.87	3991.00
412.33	3979.00
412.79	4003.00
413.25	3962.00
413.71	3981.00
414.18	4007.00
414.64	4017.00
415.10	4006.00
415.56	4040.00
416.02	4016.00
416.49	4017.00
416.95	4049.00
417.41	4037.00
417.87	3981.00
418.33	3989.00
418.80	4020.00
419.26	4018.00
419.72	4034.00
420.18	4012.00
420.64	4014.00
421.10	4108.00
421.57	4106.00
422.03	4048.00
422.49	4099.00
422.95	4041.00
423.41	4013.00
423.87	4036.00
424.34	4081.00
424.80	4077.00
425.26	4109.00
425.72	4058.00
426.18	4073.00
426.64	4067.00
427.10	4071.00
427.57	4016.00
428.03	4004.00
428.49	4015.00
428.95	3981.00
429.41	3929.00
429.87	3863.00
430.33	3843.00
430.79	3845.00
431.26	3904.00
431.72	4040.00
432.18	4208.00
432.64	4213.00
433.10	4160.00
433.56	4181.00
434.02	4171.00
434.48	4179.00
434.94	4222.00
435.40	4295.00
435.87	4324.00
436.33	4367.00
436.79	4339.00
437.25	4348.00
437.71	4276.00
438.17	4319.00
438.63	4207.00
439.09	4239.00
439.55	4325.00
440.01	4382.00
440.47	4376.00
440.93	4422.00
441.39	4445.00
441.85	4524.00
442.32	4533.00
442.78	4570.00
443.24	4562.00
443.70	4579.00
444.16	4531.00
444.62	4556.00
445.08	4646.00
445.54	4583.00
446.00	4581.00
446.46	4582.00
446.92	4626.00
447.38	4639.00
447.84	4699.00
448.30	4699.00
448.76	4743.00
449.22	4823.00
449.68	4776.00
450.14	4861.00
450.60	4834.00
451.06	4894.00
451.52	4852.00
451.98	4803.00
452.44	4810.00
452.90	4793.00
453.36	4749.00
453.82	4751.00
454.28	4778.00
454.74	4837.00
455.20	4803.00
455.66	4888.00
456.12	4909.00
456.58	4927.00
457.04	4912.00
457.50	4901.00
457.96	4916.00
458.42	4843.00
458.88	4937.00
459.34	4906.00
459.80	4983.00
460.26	4996.00
460.72	4970.00
461.18	4990.00
461.64	5023.00
462.10	5007.00
462.55	5008.00
463.01	5050.00
463.47	5003.00
463.93	4990.00
464.39	4916.00
464.85	5029.00
465.31	4968.00
465.77	5012.00
466.23	5015.00
466.69	4959.00
467.15	4992.00
467.61	4950.00
468.07	4993.00
468.52	5032.00
468.98	5010.00
469.44	5043.00
469.90	5073.00
470.36	5083.00
470.82	5020.00
471.28	5004.00
471.74	5055.00
472.20	5097.00
472.66	5147.00
473.11	5053.00
473.57	5100.00
474.03	5131.00
474.49	5114.00
474.95	5166.00
475.41	5145.00
475.87	5031.00
476.33	5149.00
476.78	5125.00
477.24	5160.00
477.70	5266.00
478.16	5213.00
478.62	5274.00
479.08	5263.00
479.54	5265.00
479.99	5252.00
480.45	5257.00
480.91	5256.00
481.37	5211.00
481.83	5332.00
482.29	5316.00
482.74	5285.00
483.20	5294.00
483.66	5246.00
484.12	5248.00
484.58	5167.00
485.04	5122.00
485.49	5022.00
485.95	4955.00
486.41	4898.00
486.87	4926.00
487.33	5059.00
487.78	5100.00
488.24	5154.00
488.70	5264.00
489.16	5185.00
489.62	5227.00
490.07	5321.00
490.53	5355.00
490.99	5263.00
491.45	5253.00
491.90	5261.00
492.36	5240.00
492.82	5210.00
493.28	5263.00
493.74	5355.00
494.19	5328.00
494.65	5341.00
495.11	5322.00
495.57	5416.00
496.02	5323.00
496.48	5404.00
496.94	5381.00
497.40	5392.00
497.85	5410.00
498.31	5363.00
498.77	5315.00
499.23	5334.00
499.68	5383.00
500.14	5322.00
500.60	5263.00
501.06	5242.00
501.51	5246.00
501.97	5252.00
502.43	5232.00
502.88	5269.00
503.34	5287.00
503.80	5355.00
504.26	5283.00
504.71	5262.00
505.17	5367.00
505.63	5436.00
506.08	5440.00
506.54	5436.00
507.00	5418.00
507.45	5394.00
507.91	5394.00
508.37	5406.00
508.82	5416.00
509.28	5429.00
509.74	5474.00
510.19	5374.00
510.65	5473.00
511.11	5413.00
511.56	5503.00
512.02	5482.00
512.48	5520.00
512.93	5424.00
513.39	5424.00
513.85	5417.00
514.30	5391.00
514.76	5437.00
515.22	5392.00
515.67	5461.00
516.13	5283.00
516.59	5277.00
517.04	5239.00
517.50	5123.00
517.95	5200.00
518.41	5233.00
518.87	5274.00
519.32	5348.00
519.78	5423.00
520.24	5455.00
520.69	5499.00
521.15	5469.00
521.60	5475.00
522.06	5525.00
522.52	5532.00
522.97	5491.00
523.43	5471.00
523.88	5559.00
524.34	5548.00
524.80	5642.00
525.25	5589.00
525.71	5565.00
526.16	5411.00
526.62	5431.00
527.07	5410.00
527.53	5438.00
527.99	5479.00
528.44	5559.00
528.90	5697.00
529.35	5675.00
529.81	5708.00
530.26	5724.00
530.72	5681.00
531.17	5712.00
531.63	5686.00
532.09	5694.00
532.54	5614.00
533.00	5643.00
533.45	5595.00
533.91	5584.00
534.36	5639.00
534.82	5670.00
535.27	5691.00
535.73	5686.00
536.18	5685.00
536.64	5697.00
537.09	5664.00
537.55	5657.00
538.00	5711.00
538.46	5728.00
538.91	5704.00
539.37	5627.00
539.82	5646.00
540.28	5530.00
540.73	5567.00
541.19	5646.00
541.64	5671.00
542.10	5667.00
542.55	5675.00
543.01	5672.00
543.46	5713.00
543.92	5719.00
544.37	5739.00
544.83	5729.00
545.28	5746.00
545.74	5781.00
546.19	5712.00
546.64	5691.00
547.10	5765.00
547.55	5762.00
548.01	5710.00
548.46	5708.00
548.92	5805.00
549.37	5768.00
549.83	5734.00
550.28	5787.00
550.73	5753.00
551.19	5755.00
551.64	5815.00
552.10	5792.00
552.55	5749.00
553.00	5775.00
553.46	5821.00
553.91	5825.00
554.37	5789.00
554.82	5842.00
555.28	5773.00
555.73	5815.00
556.18	5828.00
556.64	5778.00
557.09	5723.00
557.54	5755.00
558.00	5733.00
558.45	5748.00
558.91	5655.00
559.36	5645.00
559.81	5733.00
560.27	5679.00
560.72	5684.00
561.17	5779.00
561.63	5725.00
562.08	5731.00
562.54	5795.00
562.99	5778.00
563.44	5826.00
563.90	5805.00
564.35	5714.00
564.80	5819.00
565.26	5724.00
565.71	5717.00
566.16	5741.00
566.62	5716.00
567.07	5787.00
567.52	5788.00
567.98	5789.00
568.43	5737.00
568.88	5715.00
569.34	5754.00
569.79	5730.00
570.24	5746.00
570.69	5689.00
571.15	5715.00
571.60	5626.00
572.05	5768.00
572.51	5822.00
572.96	5804.00
573.41	5805.00
573.86	5847.00
574.32	5828.00
574.77	5815.00
575.22	5779.00
575.68	5713.00
576.13	5741.00
576.58	5809.00
577.03	5771.00
577.49	5823.00
577.94	5760.00
578.39	5797.00
578.84	5796.00
579.30	5817.00
579.75	5789.00
580.20	5810.00
580.65	5819.00
581.11	5866.00
581.56	5847.00
582.01	5915.00
582.46	5910.00
582.92	5861.00
583.37	5924.00
583.82	5958.00
584.27	5955.00
584.72	5888.00
585.18	5925.00
585.63	5797.00
586.08	5892.00
586.53	5803.00
586.98	5824.00
587.44	5903.00
587.89	5861.00
588.34	5843.00
588.79	5606.00
589.24	5558.00
589.70	5529.00
590.15	5632.00
590.60	5708.00
591.05	5754.00
591.50	5778.00
591.96	5767.00
592.41	5732.00
592.86	5811.00
593.31	5797.00
593.76	5801.00
594.21	5741.00
594.66	5765.00
595.12	5810.00
595.57	5757.00
596.02	5861.00
596.47	5786.00
596.92	5783.00
597.37	5788.00
597.82	5813.00
598.28	5803.00
598.73	5823.00
599.18	5832.00
599.63	5779.00
600.08	5811.00
600.53	5764.00
600.98	5841.00
601.43	5823.00
601.88	5787.00
602.34	5775.00
602.79	5832.00
603.24	5828.00
603.69	5823.00
604.14	5931.00
604.59	5913.00
605.04	5963.00
605.49	5867.00
605.94	5883.00
606.39	5884.00
606.84	5928.00
607.30	5876.00
607.75	5885.00
608.20	5858.00
608.65	5919.00
609.10	5826.00
609.55	5898.00
610.00	5851.00
610.45	5818.00
610.90	5921.00
611.35	5832.00
611.80	5862.00
612.25	5860.00
612.70	5854.00
613.15	5844.00
613.60	5748.00
614.05	5791.00
614.50	5917.00
614.95	5901.00
615.40	5897.00
615.85	5762.00
616.30	5789.00
616.75	5746.00
617.20	5728.00
617.65	5803.00
618.10	5833.00
618.55	5868.00
619.00	5896.00
619.45	5851.00
619.90	5886.00
620.35	5884.00
620.80	5908.00
621.25	5883.00
621.70	5905.00
622.15	5870.00
622.60	5875.00
623.05	5843.00
623.50	5776.00
623.95	5846.00
624.40	5769.00
624.85	5785.00
625.30	5756.00
625.75	5756.00
626.20	5830.00
626.65	5793.00
627.10	5861.00
627.55	5790.00
627.99	5679.00
628.44	5705.00
628.89	5750.00
629.34	5743.00
629.79	5796.00
630.24	5794.00
630.69	5766.00
631.14	5830.00
631.59	5767.00
632.04	5780.00
632.49	5824.00
632.94	5820.00
633.38	5826.00
633.83	5814.00
634.28	5826.00
634.73	5845.00
635.18	5931.00
635.63	5949.00
636.08	5871.00
636.53	5950.00
636.97	5893.00
637.42	5981.00
637.87	5953.00
638.32	5996.00
638.77	5970.00
639.22	5957.00
639.67	5909.00
640.11	5968.00
640.56	5835.00
641.01	5886.00
641.46	5915.00
641.91	5859.00
642.36	5923.00
642.81	5989.00
643.25	5923.00
643.70	5930.00
644.15	5921.00
644.60	5903.00
645.05	5936.00
645.49	5846.00
645.94	5851.00
646.39	5862.00
646.84	5827.00
647.29	5884.00
647.73	5813.00
648.18	5794.00
648.63	5816.00
649.08	5742.00
649.53	5706.00
649.97	5781.00
650.42	5747.00
650.87	5923.00
651.32	5854.00
651.77	5818.00
652.21	5781.00
652.66	5842.00
653.11	5921.00
653.56	5873.00
654.00	5867.00
654.45	5802.00
654.90	5829.00
655.35	5702.00
655.79	5544.00
656.24	5377.00
656.69	5361.00
657.14	5479.00
657.58	5634.00
658.03	5763.00
658.48	5826.00
658.92	5886.00
659.37	5829.00
659.82	5804.00
660.27	5944.00
660.71	5904.00
661.16	5872.00
661.61	5876.00
662.05	5927.00
662.50	5856.00
662.95	5883.00
663.39	5849.00
663.84	5877.00
664.29	5823.00
664.74	5959.00
665.18	5921.00
665.63	5979.00
666.08	5992.00
666.52	5907.00
666.97	5899.00
667.42	5967.00
667.86	5917.00
668.31	5944.00
668.76	5870.00
669.20	5910.00
669.65	5898.00
670.09	5884.00
670.54	5857.00
670.99	5836.00
671.43	5837.00
671.88	5806.00
672.33	5790.00
672.77	5827.00
673.22	5898.00
673.66	5882.00
674.11	5882.00
674.56	5823.00
675.00	5828.00
675.45	5886.00
675.90	5842.00
676.34	5900.00
676.79	5827.00
677.23	5849.00
677.68	5867.00
678.12	5880.00
678.57	5850.00
679.02	5848.00
679.46	5886.00
679.91	5833.00
680.35	5864.00
680.80	5860.00
681.25	5810.00
681.69	5849.00
682.14	5821.00
682.58	5800.00
683.03	5803.00
683.47	5831.00
683.92	5788.00
684.36	5766.00
684.81	5704.00
685.25	5749.00
685.70	5704.00
686.15	5735.00
686.59	5407.00
687.04	5030.00
687.48	4809.00
687.93	4920.00
688.37	5185.00
688.82	5238.00
689.26	5248.00
689.71	5239.00
690.15	5259.00
690.60	5329.00
691.04	5412.00
691.49	5483.00
691.93	5455.00
692.38	5543.00
692.82	5527.00
693.27	5463.00
693.71	5482.00
694.16	5423.00
694.60	5482.00
695.04	5443.00
695.49	5431.00
695.93	5492.00
696.38	5556.00
696.82	5616.00
697.27	5648.00
697.71	5667.00
698.16	5629.00
698.60	5494.00
699.04	5540.00
699.49	5510.00
699.93	5544.00
700.38	5505.00
700.82	5457.00
701.27	5518.00
701.71	5429.00
702.15	5439.00
702.60	5464.00
703.04	5487.00
703.49	5513.00
703.93	5559.00
704.37	5534.00
704.82	5579.00
705.26	5520.00
705.71	5534.00
706.15	5541.00
706.59	5573.00
707.04	5653.00
707.48	5550.00
707.93	5559.00
708.37	5612.00
708.81	5541.00
709.26	5562.00
709.70	5533.00
710.14	5575.00
710.59	5587.00
711.03	5583.00
711.47	5561.00
711.92	5565.00
712.36	5482.00
712.80	5532.00
713.25	5476.00
713.69	5559.00
714.13	5559.00
714.58	5472.00
715.02	5469.00
715.46	5415.00
715.91	5449.00
716.35	5303.00
716.79	5160.00
717.24	5105.00
717.68	4897.00
718.12	4881.00
718.57	4773.00
719.01	4760.00
719.45	4681.00
719.89	4743.00
720.34	4703.00
720.78	4750.00
721.22	4990.00
721.66	5110.00
722.11	5185.00
722.55	5153.00
722.99	5135.00
723.44	4954.00
723.88	4847.00
724.32	4852.00
724.76	4852.00
725.21	4897.00
725.65	4858.00
726.09	4883.00
726.53	4943.00
726.97	4921.00
727.42	4956.00
727.86	4838.00
728.30	4881.00
728.74	4934.00
729.19	4864.00
729.63	4933.00
730.07	4943.00
730.51	4947.00
730.95	4901.00
731.40	4992.00
731.84	4996.00
732.28	5139.00
732.72	5134.00
733.16	5143.00
733.61	5142.00
734.05	5228.00
734.49	5263.00
734.93	5219.00
735.37	5208.00
735.81	5192.00
736.26	5226.00
736.70	5219.00
737.14	5225.00
737.58	5219.00
738.02	5267.00
738.46	5212.00
738.90	5211.00
739.35	5169.00
739.79	5223.00
740.23	5295.00
740.67	5220.00
741.11	5196.00
741.55	5172.00
741.99	5215.00
742.44	5220.00
742.88	5250.00
743.32	5228.00
743.76	5315.00
744.20	5311.00
744.64	5185.00
745.08	5244.00
745.52	5264.00
745.96	5343.00
746.40	5284.00
746.84	5289.00
747.29	5278.00
747.73	5303.00
748.17	5300.00
748.61	5265.00
749.05	5334.00
749.49	5248.00
749.93	5245.00
750.37	5226.00
750.81	5314.00
751.25	5281.00
751.69	5235.00
752.13	5293.00
752.57	5252.00
753.01	5287.00
753.45	5241.00
753.89	5270.00
754.33	5286.00
754.77	5286.00
755.21	5249.00
755.65	5341.00
756.09	5247.00
756.53	5313.00
756.97	5250.00
757.41	5188.00
757.85	5255.00
758.29	5223.00
758.73	5152.00
759.17	4924.00
759.61	4359.00
760.05	3629.00
760.49	3165.00
760.93	3070.00
761.37	3245.00
761.81	3723.00
762.25	3976.00
762.69	3776.00
763.13	3630.00
763.57	3647.00
764.01	3697.00
764.45	3868.00
764.89	4027.00
765.33	4191.00
765.77	4340.00
766.21	4451.00
766.65	4635.00
767.09	4714.00
767.53	4880.00
767.96	4991.00
768.40	4980.00
768.84	5051.00
769.28	5056.00
769.72	5066.00
770.16	5102.00
770.60	5144.00
771.04	5222.00
771.48	5137.00
771.92	5171.00
772.35	5160.00
772.79	5170.00
773.23	5177.00
773.67	5220.00
774.11	5189.00
774.55	5127.00
774.99	5075.00
775.43	5075.00
775.86	5065.00
776.30	5146.00
776.74	5155.00
777.18	5133.00
777.62	5159.00
778.06	5084.00
778.50	5086.00
778.93	5089.00
779.37	5059.00
779.81	5088.00
780.25	5059.00
780.69	5046.00
781.12	5022.00
781.56	4996.00
782.00	5093.00
782.44	5094.00
782.88	5044.00
783.32	5070.00
783.75	4998.00
784.19	5087.00
784.63	4988.00
785.07	4998.00
785.50	4959.00
785.94	4963.00
786.38	4950.00
786.82	4936.00
787.26	4953.00
787.69	4965.00
788.13	4892.00
788.57	4956.00
789.01	4959.00
789.44	4950.00
789.88	4902.00
790.32	4823.00
790.76	4898.00
791.19	4883.00
791.63	4857.00
792.07	4835.00
792.51	4788.00
792.94	4774.00
793.38	4811.00
793.82	4796.00
794.25	4877.00
794.69	4801.00
795.13	4880.00
795.56	4899.00
796.00	4793.00
796.44	4722.00
796.88	4813.00
797.31	4743.00
797.75	4767.00
798.19	4761.00
798.62	4774.00
799.06	4784.00
799.50	4787.00
799.93	4738.00
800.37	4671.00
800.81	4702.00
801.24	4756.00
801.68	4733.00
802.12	4711.00
802.55	4719.00
802.99	4637.00
803.43	4694.00
803.86	4725.00
804.30	4673.00
804.73	4613.00
805.17	4611.00
805.61	4710.00
806.04	4738.00
806.48	4716.00
806.92	4738.00
807.35	4708.00
807.79	4670.00
808.22	4665.00
808.66	4628.00
809.10	4651.00
809.53	4608.00
809.97	4585.00
810.40	4592.00
810.84	4569.00
811.27	4547.00
811.71	4562.00
812.15	4501.00
812.58	4530.00
813.02	4425.00
813.45	4349.00
813.89	4308.00
814.32	4283.00
814.76	4215.00
815.19	4172.00
815.63	4136.00
816.07	4137.00
816.50	4075.00
816.94	4117.00
817.37	4197.00
817.81	4150.00
818.24	4087.00
818.68	4211.00
819.11	4229.00
819.55	4199.00
819.98	4190.00
820.42	4293.00
820.85	4369.00
821.29	4341.00
821.72	4301.00
822.16	4203.00
822.59	4032.00
823.03	3823.00
823.46	3970.00
823.90	4216.00
824.33	4266.00
824.77	4378.00
825.20	4368.00
825.63	4319.00
826.07	4300.00
826.50	4368.00
826.94	4381.00
827.37	4232.00
827.81	4186.00
828.24	4193.00
828.68	4210.00
829.11	4133.00
829.54	4218.00
829.98	4248.00
830.41	4229.00
830.85	4278.00
831.28	4293.00
831.71	4242.00
832.15	4200.00
832.58	4309.00
833.02	4275.00
833.45	4267.00
833.88	4285.00
834.32	4296.00
834.75	4310.00
835.19	4294.00
835.62	4319.00
836.05	4376.00
836.49	4323.00
836.92	4337.00
837.35	4356.00
837.79	4376.00
838.22	4420.00
838.66	4366.00
839.09	4421.00
839.52	4442.00
839.96	4430.00
840.39	4433.00
840.82	4359.00
841.26	4392.00
841.69	4349.00
842.12	4382.00
842.56	4368.00
842.99	4386.00
843.42	4372.00
843.85	4376.00
844.29	4374.00
844.72	4394.00
845.15	4415.00
845.59	4474.00
846.02	4440.00
846.45	4404.00
846.88	4372.00
847.32	4352.00
847.75	4376.00
848.18	4332.00
848.62	4331.00
849.05	4324.00
849.48	4268.00
849.91	4165.00
850.35	4234.00
850.78	4312.00
851.21	4327.00
851.64	4333.00
852.08	4359.00
852.51	4370.00
852.94	4340.00
853.37	4318.00
853.80	4123.00
854.24	3996.00
854.67	4077.00
855.10	4194.00
855.53	4298.00
855.97	4288.00
856.40	4293.00
856.83	4319.00
857.26	4319.00
857.69	4313.00
858.13	4296.00
858.56	4298.00
858.99	4393.00
859.42	4345.00
859.85	4343.00
860.28	4332.00
860.72	4319.00
861.15	4325.00
861.58	4321.00
862.01	4324.00
862.44	4281.00
862.87	4332.00
863.30	4301.00
863.74	4329.00
864.17	4303.00
864.60	4286.00
865.03	4315.00
865.46	4218.00
865.89	4162.00
866.32	4059.00
866.75	4153.00
867.19	4267.00
867.62	4272.00
868.05	4281.00
868.48	4257.00
868.91	4235.00
869.34	4275.00
869.77	4289.00
870.20	4223.00
870.63	4256.00
871.06	4185.00
871.49	4239.00
871.93	4244.00
872.36	4262.00
872.79	4277.00
873.22	4247.00
873.65	4241.00
874.08	4274.00
874.51	4201.00
874.94	4256.00
875.37	4242.00
875.80	4226.00
876.23	4207.00
876.66	4221.00
877.09	4195.00
877.52	4234.00
877.95	4180.00
878.38	4184.00
878.81	4165.00
879.24	4186.00
879.67	4173.00
880.10	4174.00
880.53	4116.00
880.96	4142.00
881.39	4206.00
881.82	4197.00
882.25	4191.00
882.68	4183.00
883.11	4228.00
883.54	4232.00
883.97	4211.00
884.40	4223.00
884.83	4196.00
885.26	4170.00
885.69	4151.00
886.12	4124.00
886.55	4104.00
886.98	4154.00
887.40	4153.00
887.83	4198.00
888.26	4171.00
888.69	4169.00
889.12	4185.00
889.55	4198.00
889.98	4201.00
890.41	4197.00
890.84	4171.00
891.27	4132.00
891.70	4166.00
892.12	4141.00
892.55	4109.00
892.98	4070.00
893.41	4072.00
893.84	4044.00
894.27	3990.00
894.70	3931.00
895.13	3913.00
895.55	3882.00
895.98	3858.00
896.41	3783.00
896.84	3788.00
897.27	3789.00
897.70	3807.00
898.13	3808.00
898.55	3643.00
898.98	3607.00
899.41	3749.00
899.84	3723.00
900.27	3705.00
900.70	3655.00
901.12	3714.00
901.55	3699.00
901.98	3683.00
902.41	3693.00
902.84	3806.00
903.26	3853.00
903.69	3920.00
904.12	3939.00
904.55	3915.00
904.97	3900.00
905.40	3875.00
905.83	3790.00
906.26	3750.00
906.69	3708.00
907.11	3704.00
907.54	3681.00
907.97	3643.00
908.40	3652.00
908.82	3648.00
909.25	3646.00
909.68	3651.00
910.10	3644.00
910.53	3627.00
910.96	3710.00
911.39	3680.00
911.81	3702.00
912.24	3689.00
912.67	3584.00
913.09	3515.00
913.52	3564.00
913.95	3689.00
914.38	3698.00
914.80	3559.00
915.23	3507.00
915.66	3623.00
916.08	3712.00
916.51	3702.00
916.94	3546.00
917.36	3572.00
917.79	3655.00
918.22	3685.00
918.64	3710.00
919.07	3716.00
919.50	3701.00
919.92	3767.00
920.35	3746.00
920.78	3706.00
921.20	3668.00
921.63	3701.00
922.05	3714.00
922.48	3687.00
922.91	3682.00
923.33	3638.00
923.76	3611.00
924.18	3644.00
924.61	3640.00
925.04	3659.00
925.46	3639.00
925.89	3607.00
926.31	3642.00
926.74	3592.00
927.17	3503.00
927.59	3382.00
928.02	3391.00
928.44	3349.00
928.87	3277.00
929.29	3279.00
929.72	3190.00
930.15	3160.00
930.57	3149.00
931.00	3066.00
931.42	3006.00
931.85	2958.00
932.27	2965.00
932.70	2949.00
933.12	2858.00
933.55	2825.00
933.97	2848.00
934.40	2954.00
934.82	2926.00
935.25	2859.00
935.67	2896.00
936.10	2886.00
936.52	2825.00
936.95	2864.00
937.37	2839.00
937.80	2867.00
938.22	2950.00
938.65	3033.00
939.07	3055.00
939.50	2999.00
939.92	2945.00
940.35	2928.00
940.77	2948.00
941.19	2938.00
941.62	2938.00
942.04	2900.00
942.47	2859.00
942.89	2925.00
943.32	2843.00
943.74	2823.00
944.16	2888.00
944.59	2911.00
945.01	2870.00
945.44	2850.00
945.86	2871.00
946.29	2874.00
946.71	2925.00
947.13	2910.00
947.56	2896.00
947.98	2938.00
948.40	2956.00
948.83	2923.00
949.25	2847.00
949.68	2922.00
950.10	2994.00
950.52	3028.00
950.95	2960.00
951.37	2890.00
951.79	2929.00
952.22	2957.00
952.64	2981.00
953.06	3022.00
953.49	2985.00
953.91	2942.00
954.33	2980.00
954.76	2955.00
955.18	2993.00
955.60	2983.00
956.03	2984.00
956.45	3043.00
956.87	3124.00
957.30	3064.00
957.72	3057.00
958.14	2986.00
958.56	2999.00
958.99	3026.00
959.41	3081.00
959.83	3070.00
960.26	3121.00
960.68	3174.00
961.10	3095.00
961.52	3082.00
961.95	3103.00
962.37	3177.00
962.79	3133.00
963.21	3130.00
963.64	3175.00
964.06	3177.00
964.48	3210.00
964.90	3226.00
965.32	3152.00
965.75	3183.00
966.17	3200.00
966.59	3302.00
967.01	3330.00
967.44	3320.00
967.86	3339.00
968.28	3319.00
968.70	3364.00
969.12	3346.00
969.54	3347.00
969.97	3366.00
970.39	3361.00
970.81	3350.00
971.23	3367.00
971.65	3306.00
972.07	3323.00
972.50	3316.00
972.92	3267.00
973.34	3273.00
973.76	3287.00
974.18	3297.00
974.60	3285.00
975.02	3234.00
975.45	3254.00
975.87	3305.00
976.29	3320.00
976.71	3322.00
977.13	3291.00
977.55	3285.00
977.97	3293.00
978.39	3295.00
978.81	3304.00
979.24	3321.00
979.66	3344.00
980.08	3369.00
980.50	3367.00
980.92	3363.00
981.34	3359.00
981.76	3330.00
982.18	3335.00
982.60	3376.00
983.02	3353.00
983.44	3347.00
983.86	3351.00
984.28	3380.00
984.70	3360.00
985.12	3330.00
985.54	3337.00
985.96	3319.00
986.38	3356.00
986.80	3361.00
987.23	3364.00
987.65	3324.00
988.07	3328.00
988.49	3373.00
988.91	3334.00
989.33	3381.00
989.74	3329.00
990.16	3313.00
990.58	3361.00
991.00	3346.00
991.42	3327.00
991.84	3327.00
992.26	3332.00
992.68	3366.00
993.10	3378.00
993.52	3318.00
993.94	3320.00
994.36	3313.00
994.78	3312.00
995.20	3309.00
995.62	3331.00
996.04	3317.00
996.46	3313.00
996.88	3313.00
997.30	3329.00
997.71	3297.00
998.13	3338.00
998.55	3351.00
998.97	3333.00
999.39	3361.00
999.81	3357.00
1000.23	3313.00
1000.65	3328.00
1001.07	3346.00
1001.49	3314.00
1001.90	3308.00
1002.32	3318.00
1002.74	3304.00
1003.16	3297.00
1003.58	3303.00
1004.00	3278.00
1004.42	3326.00
1004.83	3304.00
1005.25	3276.00
1005.67	3305.00
1006.09	3279.00
1006.51	3285.00
1006.92	3288.00
1007.34	3278.00
1007.76	3314.00
1008.18	3283.00
1008.60	3262.00
1009.02	3306.00
1009.43	3315.00
1009.85	3310.00
1010.27	3268.00
1010.69	3274.00
1011.10	3250.00
1011.52	3267.00
1011.94	3226.00
1012.36	3244.00
1012.78	3263.00
1013.19	3238.00
1013.61	3235.00
1014.03	3223.00
1014.45	3238.00
1014.86	3215.00
1015.28	3218.00
1015.70	3199.00
1016.12	3180.00
1016.53	3162.00
1016.95	3183.00
1017.37	3203.00
1017.78	3190.00
1018.20	3189.00
1018.62	3159.00
1019.03	3126.00
1019.45	3162.00
1019.87	3166.00
1020.29	3149.00
1020.70	3126.00
1021.12	3134.00
1021.54	3139.00
1021.95	3143.00
1022.37	3106.00
1022.79	3135.00
1023.20	3116.00
1023.62	3118.00
1024.04	3106.00
1024.45	3099.00
1024.87	3098.00
1025.28	3091.00
1025.70	3105.00
1026.12	3065.00
1026.53	3106.00
1026.95	3086.00
1027.37	3062.00
1027.78	3065.00
1028.20	3068.00
1028.61	3067.00
1029.03	3074.00
1029.45	3054.00
1029.86	3047.00
1030.28	3045.00
1030.69	3055.00
1031.11	3013.00
1031.53	3015.00
1031.94	3017.00
1032.36	3009.00
1032.77	3040.00
1033.19	3018.00
1033.60	3016.00
1034.02	2992.00
1034.43	2993.00
1034.85	2992.00
1035.27	3005.00
1035.68	2988.00
1036.10	3001.00
1036.51	2971.00
1036.93	2978.00
1037.34	2987.00
1037.76	2954.00
1038.17	2968.00
1038.59	2968.00
1039.00	2986.00
1039.42	2951.00
1039.83	2960.00
1040.25	2934.00
1040.66	2947.00
1041.08	2955.00
1041.49	2924.00
1041.91	2924.00
1042.32	2918.00
1042.73	2929.00
1043.15	2906.00
1043.56	2886.00
1043.98	2909.00
1044.39	2904.00
1044.81	2882.00
1045.22	2882.00
1045.64	2892.00
1046.05	2872.00
1046.46	2876.00
1046.88	2884.00
1047.29	2875.00
1047.71	2880.00
1048.12	2861.00
1048.53	2883.00
1048.95	2876.00
1049.36	2879.00
1049.78	2855.00
1050.19	2872.00
1050.60	2850.00
1051.02	2854.00
1051.43	2841.00
1051.85	2845.00
1052.26	2848.00
1052.67	2863.00
1053.09	2850.00
1053.50	2844.00
1053.91	2837.00
1054.33	2825.00
1054.74	2827.00
1055.15	2813.00
1055.57	2820.00
1055.98	2807.00
1056.39	2809.00
1056.81	2798.00
1057.22	2803.00
1057.63	2795.00
1058.05	2787.00
1058.46	2798.00
1058.87	2793.00
1059.28	2793.00
1059.70	2789.00
1060.11	2804.00
1060.52	2782.00
1060.94	2781.00
1061.35	2783.00
1061.76	2801.00
1062.17	2781.00
1062.59	2755.00
1063.00	2755.00
1063.41	2770.00
1063.82	2764.00
1064.24	2755.00
1064.65	2754.00
1065.06	2758.00
1065.47	2761.00
1065.89	2760.00
1066.30	2755.00
1066.71	2747.00
1067.12	2742.00
1067.53	2744.00
1067.95	2740.00
1068.36	2746.00
1068.77	2729.00
1069.18	2719.00
1069.59	2720.00
1070.00	2732.00
1070.42	2730.00
1070.83	2730.00
1071.24	2727.00
1071.65	2733.00
1072.06	2710.00
1072.47	2723.00
1072.89	2710.00
1073.30	2718.00
1073.71	2710.00
1074.12	2710.00
1074.53	2700.00
1074.94	2716.00
1075.35	2709.00
1075.77	2712.00
1076.18	2700.00
1076.59	2713.00
1077.00	2697.00
1077.41	2699.00
1077.82	2710.00
1078.23	2696.00
1078.64	2694.00
1079.05	2692.00
1079.46	2692.00
1079.87	2685.00
1080.29	2676.00
1080.70	2685.00
1081.11	2690.00
1081.52	2694.00
1081.93	2681.00
1082.34	2678.00
1082.75	2674.00
1083.16	2679.00
1083.57	2682.00
1083.98	2678.00
1084.39	2681.00
1084.80	2662.00
1085.21	2673.00
1085.62	2673.00
1086.03	2705.00
1086.44	2667.00
1086.85	2675.00
1087.26	2665.00
1087.67	2670.00
1088.08	2674.00
1088.49	2669.00
1088.90	2664.00
1089.31	2668.00
1089.72	2667.00
1090.13	2659.00
1090.54	2651.00
1090.95	2654.00
1091.36	2660.00
1091.77	2650.00
1092.18	2651.00
1092.59	2651.00
1093.00	2645.00
1093.40	2653.00
1093.81	2670.00
1094.22	2651.00
1094.63	2643.00
1095.04	2634.00
1095.45	2633.00
1095.86	2645.00
1096.27	2635.00
1096.68	2635.00
1097.09	2643.00
1097.50	2629.00
1097.90	2630.00
1098.31	2629.00
1098.72	2642.00
1099.13	2624.00
1099.54	2634.00
1099.95	2615.00
1100.36	2632.00
1100.76	2626.00
1101.17	2633.00
1101.58	2629.00
1101.99	2624.00
1102.40	2626.00
1102.81	2625.00
1103.22	2616.00
1103.62	2616.00
1104.03	2615.00
1104.44	2610.00
1104.85	2621.00
1105.26	2626.00
1105.66	2618.00
1106.07	2614.00
1106.48	2618.00
1106.89	2611.00
1107.30	2609.00
1107.70	2613.00
1108.11	2608.00
1108.52	2614.00
1108.93	2615.00
1109.33	2612.00
1109.74	2612.00
1110.15	2619.00
1110.56	2608.00
1110.96	2606.00
1111.37	2613.00
1111.78	2613.00
1112.19	2616.00
1112.59	2608.00
1113.00	2610.00
1113.41	2597.00
1113.81	2606.00
1114.22	2605.00
1114.63	2574.00
1115.03	2579.00
1115.44	2575.00
1115.85	2581.00
>>>>>End Processed Spectral Data<<<<<
