SpectraSuite Data File
++++++++++++++++++++++++++++++++++++
Date: Thu Aug 05 10:45:31 EEST 2021
User: CanSEE
Dark Spectrum Present: No
Reference Spectrum Present: No
Number of Sampled Component Spectra: 1
Spectrometers: MAYP112785
Integration Time (usec): 10000 (MAYP112785)
Spectra Averaged: 1 (MAYP112785)
Boxcar Smoothing: 0 (MAYP112785)
Correct for Electrical Dark: No (MAYP112785)
Strobe/Lamp Enabled: No (MAYP112785)
Correct for Detector Non-linearity: No (MAYP112785)
Correct for Stray Light: No (MAYP112785)
Number of Pixels in Processed Spectrum: 2068
>>>>>Begin Processed Spectral Data<<<<<
198.35	3481.00
198.82	2490.00
199.30	2588.00
199.77	2572.00
200.24	2599.00
200.71	2599.00
201.18	2611.00
201.65	2606.00
202.13	2611.00
202.60	2613.00
203.07	2608.00
203.54	2608.00
204.01	2599.00
204.48	2610.00
204.96	2602.00
205.43	2604.00
205.90	2606.00
206.37	2600.00
206.84	2606.00
207.31	2601.00
207.78	2609.00
208.26	2605.00
208.73	2608.00
209.20	2608.00
209.67	2604.00
210.14	2612.00
210.61	2606.00
211.08	2610.00
211.56	2611.00
212.03	2610.00
212.50	2612.00
212.97	2614.00
213.44	2605.00
213.91	2606.00
214.38	2610.00
214.85	2607.00
215.33	2611.00
215.80	2605.00
216.27	2604.00
216.74	2602.00
217.21	2603.00
217.68	2607.00
218.15	2611.00
218.62	2609.00
219.09	2596.00
219.57	2603.00
220.04	2606.00
220.51	2614.00
220.98	2605.00
221.45	2606.00
221.92	2605.00
222.39	2602.00
222.86	2610.00
223.33	2610.00
223.80	2610.00
224.27	2599.00
224.74	2601.00
225.22	2603.00
225.69	2609.00
226.16	2603.00
226.63	2600.00
227.10	2609.00
227.57	2606.00
228.04	2606.00
228.51	2611.00
228.98	2609.00
229.45	2601.00
229.92	2612.00
230.39	2600.00
230.86	2607.00
231.33	2601.00
231.80	2605.00
232.27	2605.00
232.75	2604.00
233.22	2602.00
233.69	2605.00
234.16	2606.00
234.63	2605.00
235.10	2605.00
235.57	2608.00
236.04	2600.00
236.51	2602.00
236.98	2605.00
237.45	2609.00
237.92	2598.00
238.39	2606.00
238.86	2609.00
239.33	2665.00
239.80	2607.00
240.27	2609.00
240.74	2613.00
241.21	2606.00
241.68	2608.00
242.15	2606.00
242.62	2606.00
243.09	2608.00
243.56	2608.00
244.03	2599.00
244.50	2615.00
244.97	2604.00
245.44	2624.00
245.91	2606.00
246.38	2598.00
246.85	2605.00
247.32	2603.00
247.79	2615.00
248.26	2612.00
248.73	2598.00
249.20	2609.00
249.67	2614.00
250.14	2607.00
250.61	2607.00
251.08	2611.00
251.55	2605.00
252.02	2603.00
252.49	2605.00
252.96	2604.00
253.43	2606.00
253.90	2608.00
254.37	2617.00
254.84	2601.00
255.31	2592.00
255.77	2602.00
256.24	2610.00
256.71	2606.00
257.18	2611.00
257.65	2609.00
258.12	2608.00
258.59	2613.00
259.06	2611.00
259.53	2613.00
260.00	2606.00
260.47	2608.00
260.94	2609.00
261.41	2612.00
261.88	2612.00
262.35	2613.00
262.81	2612.00
263.28	2610.00
263.75	2608.00
264.22	2609.00
264.69	2608.00
265.16	2609.00
265.63	2606.00
266.10	2607.00
266.57	2603.00
267.04	2611.00
267.51	2607.00
267.97	2615.00
268.44	2608.00
268.91	2600.00
269.38	2609.00
269.85	2601.00
270.32	2608.00
270.79	2609.00
271.26	2613.00
271.73	2605.00
272.19	2608.00
272.66	2607.00
273.13	2615.00
273.60	2603.00
274.07	2605.00
274.54	2605.00
275.01	2611.00
275.48	2605.00
275.94	2608.00
276.41	2605.00
276.88	2602.00
277.35	2601.00
277.82	2608.00
278.29	2611.00
278.76	2608.00
279.22	2609.00
279.69	2602.00
280.16	2616.00
280.63	2608.00
281.10	2614.00
281.57	2606.00
282.04	2610.00
282.50	2610.00
282.97	2607.00
283.44	2608.00
283.91	2615.00
284.38	2606.00
284.85	2607.00
285.31	2607.00
285.78	2615.00
286.25	2601.00
286.72	2605.00
287.19	2603.00
287.65	2616.00
288.12	2607.00
288.59	2610.00
289.06	2607.00
289.53	2605.00
289.99	2611.00
290.46	2607.00
290.93	2610.00
291.40	2607.00
291.87	2609.00
292.33	2610.00
292.80	2604.00
293.27	2618.00
293.74	2596.00
294.21	2608.00
294.67	2603.00
295.14	2603.00
295.61	2605.00
296.08	2609.00
296.54	2606.00
297.01	2601.00
297.48	2602.00
297.95	2603.00
298.42	2603.00
298.88	2611.00
299.35	2606.00
299.82	2608.00
300.29	2609.00
300.75	2612.00
301.22	2612.00
301.69	2613.00
302.16	2609.00
302.62	2604.00
303.09	2607.00
303.56	2611.00
304.03	2615.00
304.49	2613.00
304.96	2606.00
305.43	2620.00
305.90	2621.00
306.36	2619.00
306.83	2609.00
307.30	2613.00
307.76	2618.00
308.23	2623.00
308.70	2618.00
309.17	2631.00
309.63	2625.00
310.10	2632.00
310.57	2630.00
311.03	2646.00
311.50	2641.00
311.97	2651.00
312.44	2654.00
312.90	2659.00
313.37	2656.00
313.84	2657.00
314.30	2677.00
314.77	2670.00
315.24	2669.00
315.70	2669.00
316.17	2668.00
316.64	2674.00
317.10	2690.00
317.57	2693.00
318.04	2691.00
318.50	2682.00
318.97	2687.00
319.44	2707.00
319.90	2713.00
320.37	2717.00
320.84	2721.00
321.30	2725.00
321.77	2726.00
322.24	2723.00
322.70	2719.00
323.17	2719.00
323.64	2734.00
324.10	2740.00
324.57	2754.00
325.04	2772.00
325.50	2762.00
325.97	2766.00
326.44	2815.00
326.90	2794.00
327.37	2814.00
327.84	2811.00
328.30	2803.00
328.77	2790.00
329.23	2813.00
329.70	2846.00
330.17	2834.00
330.63	2827.00
331.10	2831.00
331.56	2825.00
332.03	2826.00
332.50	2843.00
332.96	2839.00
333.43	2836.00
333.90	2830.00
334.36	2817.00
334.83	2835.00
335.29	2858.00
335.76	2839.00
336.22	2820.00
336.69	2810.00
337.16	2795.00
337.62	2828.00
338.09	2833.00
338.55	2839.00
339.02	2862.00
339.49	2870.00
339.95	2872.00
340.42	2901.00
340.88	2871.00
341.35	2859.00
341.81	2875.00
342.28	2873.00
342.75	2908.00
343.21	2868.00
343.68	2884.00
344.14	2859.00
344.61	2864.00
345.07	2859.00
345.54	2901.00
346.00	2893.00
346.47	2910.00
346.93	2890.00
347.40	2931.00
347.87	2906.00
348.33	2913.00
348.80	2912.00
349.26	2910.00
349.73	2926.00
350.19	2946.00
350.66	2954.00
351.12	2954.00
351.59	2941.00
352.05	2925.00
352.52	2920.00
352.98	2930.00
353.45	2960.00
353.91	2980.00
354.38	2975.00
354.84	2983.00
355.31	2969.00
355.77	2972.00
356.24	2948.00
356.70	2941.00
357.17	2908.00
357.63	2906.00
358.10	2918.00
358.56	2889.00
359.03	2901.00
359.49	2954.00
359.96	3008.00
360.42	2989.00
360.89	2949.00
361.35	2964.00
361.82	2954.00
362.28	2965.00
362.75	2987.00
363.21	3011.00
363.67	2990.00
364.14	2999.00
364.60	3035.00
365.07	3013.00
365.53	3046.00
366.00	3064.00
366.46	3125.00
366.93	3078.00
367.39	3066.00
367.86	3067.00
368.32	3056.00
368.78	3102.00
369.25	3073.00
369.71	3104.00
370.18	3114.00
370.64	3076.00
371.11	3086.00
371.57	3088.00
372.03	3097.00
372.50	3074.00
372.96	3060.00
373.43	3017.00
373.89	3003.00
374.35	3029.00
374.82	3044.00
375.28	3046.00
375.75	3077.00
376.21	3138.00
376.67	3125.00
377.14	3153.00
377.60	3162.00
378.07	3242.00
378.53	3222.00
378.99	3177.00
379.46	3173.00
379.92	3142.00
380.39	3159.00
380.85	3198.00
381.31	3160.00
381.78	3105.00
382.24	3053.00
382.70	3015.00
383.17	3002.00
383.63	2992.00
384.09	3032.00
384.56	3095.00
385.02	3159.00
385.48	3194.00
385.95	3156.00
386.41	3164.00
386.88	3147.00
387.34	3187.00
387.80	3158.00
388.27	3183.00
388.73	3193.00
389.19	3247.00
389.66	3283.00
390.12	3318.00
390.58	3306.00
391.05	3325.00
391.51	3302.00
391.97	3311.00
392.43	3229.00
392.90	3156.00
393.36	3087.00
393.82	3067.00
394.29	3176.00
394.75	3287.00
395.21	3328.00
395.68	3336.00
396.14	3282.00
396.60	3244.00
397.07	3147.00
397.53	3233.00
397.99	3426.00
398.45	3581.00
398.92	3619.00
399.38	3703.00
399.84	3714.00
400.31	3691.00
400.77	3748.00
401.23	3755.00
401.69	3809.00
402.16	3794.00
402.62	3823.00
403.08	3783.00
403.54	3773.00
404.01	3788.00
404.47	3805.00
404.93	3799.00
405.39	3785.00
405.86	3792.00
406.32	3791.00
406.78	3749.00
407.24	3788.00
407.71	3847.00
408.17	3875.00
408.63	3860.00
409.09	3850.00
409.56	3871.00
410.02	3846.00
410.48	3817.00
410.94	3855.00
411.40	3969.00
411.87	3969.00
412.33	3982.00
412.79	4010.00
413.25	3994.00
413.71	3936.00
414.18	3974.00
414.64	4002.00
415.10	4012.00
415.56	3985.00
416.02	4025.00
416.49	4018.00
416.95	4047.00
417.41	4004.00
417.87	4006.00
418.33	3993.00
418.80	3992.00
419.26	4052.00
419.72	4021.00
420.18	4050.00
420.64	4051.00
421.10	4101.00
421.57	4085.00
422.03	4065.00
422.49	4047.00
422.95	4064.00
423.41	4010.00
423.87	4039.00
424.34	4077.00
424.80	4062.00
425.26	4034.00
425.72	4064.00
426.18	4063.00
426.64	4024.00
427.10	4034.00
427.57	4038.00
428.03	4025.00
428.49	3988.00
428.95	3935.00
429.41	3890.00
429.87	3839.00
430.33	3855.00
430.79	3816.00
431.26	3903.00
431.72	4052.00
432.18	4212.00
432.64	4203.00
433.10	4124.00
433.56	4194.00
434.02	4179.00
434.48	4113.00
434.94	4225.00
435.40	4312.00
435.87	4273.00
436.33	4347.00
436.79	4370.00
437.25	4318.00
437.71	4309.00
438.17	4267.00
438.63	4262.00
439.09	4209.00
439.55	4290.00
440.01	4368.00
440.47	4384.00
440.93	4400.00
441.39	4474.00
441.85	4463.00
442.32	4582.00
442.78	4567.00
443.24	4512.00
443.70	4576.00
444.16	4552.00
444.62	4571.00
445.08	4591.00
445.54	4535.00
446.00	4513.00
446.46	4577.00
446.92	4600.00
447.38	4673.00
447.84	4753.00
448.30	4732.00
448.76	4720.00
449.22	4775.00
449.68	4769.00
450.14	4859.00
450.60	4892.00
451.06	4858.00
451.52	4863.00
451.98	4747.00
452.44	4813.00
452.90	4788.00
453.36	4749.00
453.82	4804.00
454.28	4811.00
454.74	4853.00
455.20	4879.00
455.66	4855.00
456.12	4949.00
456.58	4934.00
457.04	4899.00
457.50	4905.00
457.96	4926.00
458.42	4902.00
458.88	4864.00
459.34	4910.00
459.80	4890.00
460.26	4949.00
460.72	4972.00
461.18	4972.00
461.64	5003.00
462.10	5071.00
462.55	4998.00
463.01	4998.00
463.47	4998.00
463.93	4992.00
464.39	4969.00
464.85	4928.00
465.31	4969.00
465.77	5020.00
466.23	5016.00
466.69	4996.00
467.15	4924.00
467.61	4977.00
468.07	5068.00
468.52	5050.00
468.98	4955.00
469.44	5071.00
469.90	5005.00
470.36	5017.00
470.82	4968.00
471.28	5001.00
471.74	5058.00
472.20	5145.00
472.66	5167.00
473.11	5130.00
473.57	5054.00
474.03	5096.00
474.49	5186.00
474.95	5116.00
475.41	5155.00
475.87	5116.00
476.33	5125.00
476.78	5149.00
477.24	5178.00
477.70	5278.00
478.16	5194.00
478.62	5230.00
479.08	5179.00
479.54	5265.00
479.99	5273.00
480.45	5333.00
480.91	5275.00
481.37	5297.00
481.83	5335.00
482.29	5297.00
482.74	5272.00
483.20	5239.00
483.66	5242.00
484.12	5259.00
484.58	5232.00
485.04	5066.00
485.49	5018.00
485.95	4965.00
486.41	4924.00
486.87	4904.00
487.33	5083.00
487.78	5088.00
488.24	5127.00
488.70	5186.00
489.16	5246.00
489.62	5220.00
490.07	5331.00
490.53	5259.00
490.99	5321.00
491.45	5264.00
491.90	5230.00
492.36	5248.00
492.82	5237.00
493.28	5304.00
493.74	5392.00
494.19	5363.00
494.65	5284.00
495.11	5375.00
495.57	5403.00
496.02	5347.00
496.48	5341.00
496.94	5385.00
497.40	5390.00
497.85	5319.00
498.31	5305.00
498.77	5330.00
499.23	5277.00
499.68	5366.00
500.14	5355.00
500.60	5243.00
501.06	5270.00
501.51	5227.00
501.97	5240.00
502.43	5229.00
502.88	5250.00
503.34	5316.00
503.80	5303.00
504.26	5304.00
504.71	5304.00
505.17	5377.00
505.63	5401.00
506.08	5414.00
506.54	5415.00
507.00	5347.00
507.45	5327.00
507.91	5323.00
508.37	5389.00
508.82	5384.00
509.28	5446.00
509.74	5495.00
510.19	5406.00
510.65	5429.00
511.11	5552.00
511.56	5477.00
512.02	5456.00
512.48	5466.00
512.93	5410.00
513.39	5366.00
513.85	5385.00
514.30	5399.00
514.76	5445.00
515.22	5437.00
515.67	5417.00
516.13	5271.00
516.59	5262.00
517.04	5185.00
517.50	5178.00
517.95	5162.00
518.41	5281.00
518.87	5337.00
519.32	5318.00
519.78	5404.00
520.24	5464.00
520.69	5483.00
521.15	5518.00
521.60	5528.00
522.06	5498.00
522.52	5474.00
522.97	5510.00
523.43	5507.00
523.88	5610.00
524.34	5641.00
524.80	5659.00
525.25	5590.00
525.71	5539.00
526.16	5497.00
526.62	5410.00
527.07	5305.00
527.53	5446.00
527.99	5498.00
528.44	5624.00
528.90	5644.00
529.35	5649.00
529.81	5671.00
530.26	5663.00
530.72	5715.00
531.17	5778.00
531.63	5692.00
532.09	5632.00
532.54	5605.00
533.00	5575.00
533.45	5570.00
533.91	5594.00
534.36	5725.00
534.82	5657.00
535.27	5689.00
535.73	5724.00
536.18	5794.00
536.64	5719.00
537.09	5710.00
537.55	5683.00
538.00	5669.00
538.46	5687.00
538.91	5669.00
539.37	5667.00
539.82	5692.00
540.28	5527.00
540.73	5552.00
541.19	5609.00
541.64	5663.00
542.10	5694.00
542.55	5689.00
543.01	5661.00
543.46	5713.00
543.92	5684.00
544.37	5712.00
544.83	5722.00
545.28	5709.00
545.74	5694.00
546.19	5742.00
546.64	5729.00
547.10	5712.00
547.55	5673.00
548.01	5651.00
548.46	5752.00
548.92	5745.00
549.37	5765.00
549.83	5804.00
550.28	5789.00
550.73	5724.00
551.19	5784.00
551.64	5792.00
552.10	5808.00
552.55	5799.00
553.00	5775.00
553.46	5760.00
553.91	5773.00
554.37	5849.00
554.82	5826.00
555.28	5804.00
555.73	5758.00
556.18	5807.00
556.64	5811.00
557.09	5726.00
557.54	5661.00
558.00	5724.00
558.45	5742.00
558.91	5739.00
559.36	5659.00
559.81	5718.00
560.27	5720.00
560.72	5748.00
561.17	5746.00
561.63	5774.00
562.08	5746.00
562.54	5751.00
562.99	5810.00
563.44	5796.00
563.90	5781.00
564.35	5767.00
564.80	5802.00
565.26	5783.00
565.71	5730.00
566.16	5718.00
566.62	5685.00
567.07	5748.00
567.52	5782.00
567.98	5768.00
568.43	5728.00
568.88	5735.00
569.34	5708.00
569.79	5734.00
570.24	5718.00
570.69	5732.00
571.15	5702.00
571.60	5749.00
572.05	5679.00
572.51	5807.00
572.96	5858.00
573.41	5836.00
573.86	5850.00
574.32	5764.00
574.77	5796.00
575.22	5705.00
575.68	5711.00
576.13	5821.00
576.58	5797.00
577.03	5827.00
577.49	5749.00
577.94	5717.00
578.39	5723.00
578.84	5761.00
579.30	5824.00
579.75	5872.00
580.20	5830.00
580.65	5822.00
581.11	5872.00
581.56	5799.00
582.01	5918.00
582.46	5878.00
582.92	5928.00
583.37	5908.00
583.82	5892.00
584.27	5942.00
584.72	5917.00
585.18	5925.00
585.63	5812.00
586.08	5904.00
586.53	5832.00
586.98	5855.00
587.44	5886.00
587.89	5856.00
588.34	5809.00
588.79	5579.00
589.24	5568.00
589.70	5538.00
590.15	5659.00
590.60	5747.00
591.05	5792.00
591.50	5781.00
591.96	5797.00
592.41	5835.00
592.86	5760.00
593.31	5842.00
593.76	5811.00
594.21	5769.00
594.66	5695.00
595.12	5785.00
595.57	5777.00
596.02	5786.00
596.47	5822.00
596.92	5838.00
597.37	5775.00
597.82	5844.00
598.28	5744.00
598.73	5782.00
599.18	5790.00
599.63	5769.00
600.08	5800.00
600.53	5835.00
600.98	5856.00
601.43	5780.00
601.88	5734.00
602.34	5745.00
602.79	5806.00
603.24	5817.00
603.69	5979.00
604.14	5854.00
604.59	5951.00
605.04	5867.00
605.49	5918.00
605.94	5857.00
606.39	5895.00
606.84	5941.00
607.30	5918.00
607.75	5863.00
608.20	5776.00
608.65	5782.00
609.10	5878.00
609.55	5892.00
610.00	5815.00
610.45	5907.00
610.90	5849.00
611.35	5897.00
611.80	5897.00
612.25	5829.00
612.70	5808.00
613.15	5839.00
613.60	5813.00
614.05	5811.00
614.50	5817.00
614.95	5853.00
615.40	5815.00
615.85	5795.00
616.30	5756.00
616.75	5768.00
617.20	5755.00
617.65	5806.00
618.10	5874.00
618.55	5872.00
619.00	5891.00
619.45	5897.00
619.90	5884.00
620.35	5829.00
620.80	5946.00
621.25	5899.00
621.70	5882.00
622.15	5866.00
622.60	5832.00
623.05	5865.00
623.50	5758.00
623.95	5742.00
624.40	5768.00
624.85	5798.00
625.30	5767.00
625.75	5791.00
626.20	5827.00
626.65	5793.00
627.10	5802.00
627.55	5763.00
627.99	5769.00
628.44	5726.00
628.89	5786.00
629.34	5760.00
629.79	5758.00
630.24	5753.00
630.69	5755.00
631.14	5866.00
631.59	5773.00
632.04	5804.00
632.49	5856.00
632.94	5809.00
633.38	5848.00
633.83	5807.00
634.28	5850.00
634.73	5898.00
635.18	5836.00
635.63	5878.00
636.08	5852.00
636.53	5883.00
636.97	5926.00
637.42	5940.00
637.87	5918.00
638.32	6018.00
638.77	5937.00
639.22	5991.00
639.67	5901.00
640.11	5912.00
640.56	5918.00
641.01	5830.00
641.46	5911.00
641.91	5894.00
642.36	5894.00
642.81	5937.00
643.25	5975.00
643.70	5879.00
644.15	5936.00
644.60	5935.00
645.05	5872.00
645.49	5878.00
645.94	5825.00
646.39	5941.00
646.84	5823.00
647.29	5802.00
647.73	5787.00
648.18	5777.00
648.63	5764.00
649.08	5836.00
649.53	5787.00
649.97	5787.00
650.42	5839.00
650.87	5859.00
651.32	5899.00
651.77	5782.00
652.21	5815.00
652.66	5855.00
653.11	5893.00
653.56	5855.00
654.00	5826.00
654.45	5862.00
654.90	5784.00
655.35	5665.00
655.79	5591.00
656.24	5343.00
656.69	5356.00
657.14	5473.00
657.58	5723.00
658.03	5753.00
658.48	5842.00
658.92	5873.00
659.37	5812.00
659.82	5820.00
660.27	5867.00
660.71	5901.00
661.16	5932.00
661.61	5908.00
662.05	5909.00
662.50	5946.00
662.95	5959.00
663.39	5909.00
663.84	5872.00
664.29	5863.00
664.74	5886.00
665.18	5942.00
665.63	5909.00
666.08	5923.00
666.52	5855.00
666.97	5866.00
667.42	5884.00
667.86	5909.00
668.31	5832.00
668.76	5888.00
669.20	5963.00
669.65	5849.00
670.09	5827.00
670.54	5849.00
670.99	5857.00
671.43	5855.00
671.88	5928.00
672.33	5844.00
672.77	5871.00
673.22	5839.00
673.66	5865.00
674.11	5873.00
674.56	5837.00
675.00	5835.00
675.45	5873.00
675.90	5869.00
676.34	5811.00
676.79	5850.00
677.23	5902.00
677.68	5816.00
678.12	5826.00
678.57	5919.00
679.02	5755.00
679.46	5811.00
679.91	5829.00
680.35	5874.00
680.80	5848.00
681.25	5817.00
681.69	5784.00
682.14	5850.00
682.58	5819.00
683.03	5796.00
683.47	5860.00
683.92	5783.00
684.36	5727.00
684.81	5748.00
685.25	5769.00
685.70	5678.00
686.15	5659.00
686.59	5466.00
687.04	5038.00
687.48	4829.00
687.93	4938.00
688.37	5216.00
688.82	5274.00
689.26	5268.00
689.71	5193.00
690.15	5247.00
690.60	5299.00
691.04	5346.00
691.49	5406.00
691.93	5478.00
692.38	5529.00
692.82	5536.00
693.27	5489.00
693.71	5484.00
694.16	5425.00
694.60	5456.00
695.04	5472.00
695.49	5556.00
695.93	5501.00
696.38	5546.00
696.82	5604.00
697.27	5653.00
697.71	5633.00
698.16	5564.00
698.60	5492.00
699.04	5525.00
699.49	5520.00
699.93	5544.00
700.38	5498.00
700.82	5454.00
701.27	5507.00
701.71	5422.00
702.15	5439.00
702.60	5444.00
703.04	5473.00
703.49	5510.00
703.93	5514.00
704.37	5532.00
704.82	5627.00
705.26	5618.00
705.71	5550.00
706.15	5574.00
706.59	5527.00
707.04	5583.00
707.48	5563.00
707.93	5537.00
708.37	5618.00
708.81	5540.00
709.26	5554.00
709.70	5558.00
710.14	5520.00
710.59	5580.00
711.03	5520.00
711.47	5573.00
711.92	5561.00
712.36	5510.00
712.80	5518.00
713.25	5491.00
713.69	5528.00
714.13	5495.00
714.58	5526.00
715.02	5430.00
715.46	5406.00
715.91	5424.00
716.35	5339.00
716.79	5199.00
717.24	4998.00
717.68	4919.00
718.12	4891.00
718.57	4733.00
719.01	4743.00
719.45	4669.00
719.89	4697.00
720.34	4740.00
720.78	4741.00
721.22	4962.00
721.66	5128.00
722.11	5167.00
722.55	5208.00
722.99	5102.00
723.44	4937.00
723.88	4931.00
724.32	4837.00
724.76	4864.00
725.21	4888.00
725.65	4799.00
726.09	4827.00
726.53	4880.00
726.97	4950.00
727.42	4956.00
727.86	4849.00
728.30	4956.00
728.74	4925.00
729.19	4897.00
729.63	4803.00
730.07	4974.00
730.51	4975.00
730.95	4908.00
731.40	4918.00
731.84	5011.00
732.28	5123.00
732.72	5139.00
733.16	5102.00
733.61	5196.00
734.05	5282.00
734.49	5203.00
734.93	5195.00
735.37	5216.00
735.81	5178.00
736.26	5206.00
736.70	5199.00
737.14	5239.00
737.58	5265.00
738.02	5199.00
738.46	5248.00
738.90	5171.00
739.35	5207.00
739.79	5187.00
740.23	5195.00
740.67	5239.00
741.11	5211.00
741.55	5204.00
741.99	5215.00
742.44	5226.00
742.88	5287.00
743.32	5265.00
743.76	5269.00
744.20	5268.00
744.64	5182.00
745.08	5261.00
745.52	5278.00
745.96	5340.00
746.40	5271.00
746.84	5305.00
747.29	5284.00
747.73	5249.00
748.17	5317.00
748.61	5302.00
749.05	5296.00
749.49	5195.00
749.93	5284.00
750.37	5272.00
750.81	5249.00
751.25	5214.00
751.69	5307.00
752.13	5273.00
752.57	5314.00
753.01	5226.00
753.45	5264.00
753.89	5283.00
754.33	5312.00
754.77	5245.00
755.21	5290.00
755.65	5295.00
756.09	5310.00
756.53	5280.00
756.97	5203.00
757.41	5295.00
757.85	5231.00
758.29	5229.00
758.73	5137.00
759.17	4975.00
759.61	4325.00
760.05	3618.00
760.49	3147.00
760.93	3063.00
761.37	3234.00
761.81	3751.00
762.25	3974.00
762.69	3793.00
763.13	3657.00
763.57	3599.00
764.01	3703.00
764.45	3831.00
764.89	4017.00
765.33	4196.00
765.77	4368.00
766.21	4482.00
766.65	4615.00
767.09	4801.00
767.53	4843.00
767.96	4971.00
768.40	4997.00
768.84	5021.00
769.28	5079.00
769.72	5067.00
770.16	5073.00
770.60	5173.00
771.04	5174.00
771.48	5135.00
771.92	5180.00
772.35	5182.00
772.79	5174.00
773.23	5156.00
773.67	5132.00
774.11	5177.00
774.55	5131.00
774.99	5057.00
775.43	5132.00
775.86	5055.00
776.30	5141.00
776.74	5155.00
777.18	5139.00
777.62	5076.00
778.06	5137.00
778.50	5102.00
778.93	5091.00
779.37	5085.00
779.81	5030.00
780.25	5075.00
780.69	5030.00
781.12	5033.00
781.56	5049.00
782.00	5039.00
782.44	5130.00
782.88	5055.00
783.32	5083.00
783.75	5014.00
784.19	5080.00
784.63	5001.00
785.07	5034.00
785.50	5010.00
785.94	4975.00
786.38	4864.00
786.82	4938.00
787.26	4947.00
787.69	4925.00
788.13	4926.00
788.57	4922.00
789.01	5007.00
789.44	4903.00
789.88	4854.00
790.32	4871.00
790.76	4874.00
791.19	4852.00
791.63	4842.00
792.07	4779.00
792.51	4842.00
792.94	4787.00
793.38	4751.00
793.82	4858.00
794.25	4785.00
794.69	4828.00
795.13	4845.00
795.56	4803.00
796.00	4788.00
796.44	4753.00
796.88	4774.00
797.31	4783.00
797.75	4815.00
798.19	4842.00
798.62	4759.00
799.06	4774.00
799.50	4742.00
799.93	4740.00
800.37	4736.00
800.81	4746.00
801.24	4751.00
801.68	4738.00
802.12	4754.00
802.55	4662.00
802.99	4692.00
803.43	4665.00
803.86	4721.00
804.30	4658.00
804.73	4636.00
805.17	4709.00
805.61	4723.00
806.04	4742.00
806.48	4738.00
806.92	4705.00
807.35	4733.00
807.79	4701.00
808.22	4652.00
808.66	4639.00
809.10	4669.00
809.53	4560.00
809.97	4566.00
810.40	4606.00
810.84	4589.00
811.27	4541.00
811.71	4530.00
812.15	4528.00
812.58	4507.00
813.02	4491.00
813.45	4369.00
813.89	4326.00
814.32	4271.00
814.76	4204.00
815.19	4155.00
815.63	4168.00
816.07	4157.00
816.50	4051.00
816.94	4113.00
817.37	4180.00
817.81	4141.00
818.24	4129.00
818.68	4208.00
819.11	4203.00
819.55	4119.00
819.98	4170.00
820.42	4285.00
820.85	4400.00
821.29	4285.00
821.72	4321.00
822.16	4235.00
822.59	4017.00
823.03	3866.00
823.46	3985.00
823.90	4167.00
824.33	4228.00
824.77	4381.00
825.20	4365.00
825.63	4301.00
826.07	4319.00
826.50	4357.00
826.94	4397.00
827.37	4244.00
827.81	4178.00
828.24	4166.00
828.68	4188.00
829.11	4166.00
829.54	4185.00
829.98	4227.00
830.41	4227.00
830.85	4282.00
831.28	4299.00
831.71	4256.00
832.15	4215.00
832.58	4261.00
833.02	4289.00
833.45	4250.00
833.88	4245.00
834.32	4320.00
834.75	4317.00
835.19	4302.00
835.62	4315.00
836.05	4291.00
836.49	4325.00
836.92	4321.00
837.35	4311.00
837.79	4339.00
838.22	4385.00
838.66	4408.00
839.09	4400.00
839.52	4411.00
839.96	4417.00
840.39	4373.00
840.82	4391.00
841.26	4376.00
841.69	4352.00
842.12	4366.00
842.56	4360.00
842.99	4377.00
843.42	4348.00
843.85	4328.00
844.29	4365.00
844.72	4415.00
845.15	4435.00
845.59	4469.00
846.02	4437.00
846.45	4371.00
846.88	4410.00
847.32	4381.00
847.75	4367.00
848.18	4367.00
848.62	4345.00
849.05	4371.00
849.48	4296.00
849.91	4154.00
850.35	4255.00
850.78	4307.00
851.21	4314.00
851.64	4304.00
852.08	4317.00
852.51	4414.00
852.94	4332.00
853.37	4290.00
853.80	4126.00
854.24	4014.00
854.67	4094.00
855.10	4245.00
855.53	4276.00
855.97	4277.00
856.40	4295.00
856.83	4387.00
857.26	4291.00
857.69	4340.00
858.13	4306.00
858.56	4301.00
858.99	4325.00
859.42	4355.00
859.85	4327.00
860.28	4373.00
860.72	4365.00
861.15	4322.00
861.58	4307.00
862.01	4349.00
862.44	4270.00
862.87	4307.00
863.30	4299.00
863.74	4277.00
864.17	4302.00
864.60	4266.00
865.03	4277.00
865.46	4263.00
865.89	4108.00
866.32	4019.00
866.75	4184.00
867.19	4266.00
867.62	4296.00
868.05	4312.00
868.48	4257.00
868.91	4251.00
869.34	4226.00
869.77	4269.00
870.20	4215.00
870.63	4285.00
871.06	4247.00
871.49	4217.00
871.93	4259.00
872.36	4278.00
872.79	4209.00
873.22	4212.00
873.65	4260.00
874.08	4267.00
874.51	4256.00
874.94	4279.00
875.37	4259.00
875.80	4235.00
876.23	4222.00
876.66	4241.00
877.09	4197.00
877.52	4250.00
877.95	4235.00
878.38	4186.00
878.81	4179.00
879.24	4143.00
879.67	4229.00
880.10	4162.00
880.53	4111.00
880.96	4146.00
881.39	4189.00
881.82	4188.00
882.25	4194.00
882.68	4220.00
883.11	4228.00
883.54	4235.00
883.97	4226.00
884.40	4214.00
884.83	4170.00
885.26	4189.00
885.69	4121.00
886.12	4153.00
886.55	4091.00
886.98	4151.00
887.40	4161.00
887.83	4146.00
888.26	4169.00
888.69	4168.00
889.12	4135.00
889.55	4135.00
889.98	4170.00
890.41	4160.00
890.84	4137.00
891.27	4151.00
891.70	4140.00
892.12	4142.00
892.55	4092.00
892.98	4023.00
893.41	4052.00
893.84	4059.00
894.27	4002.00
894.70	3928.00
895.13	3904.00
895.55	3872.00
895.98	3875.00
896.41	3779.00
896.84	3778.00
897.27	3761.00
897.70	3820.00
898.13	3803.00
898.55	3592.00
898.98	3602.00
899.41	3813.00
899.84	3738.00
900.27	3687.00
900.70	3655.00
901.12	3704.00
901.55	3699.00
901.98	3696.00
902.41	3687.00
902.84	3812.00
903.26	3889.00
903.69	3910.00
904.12	3861.00
904.55	3865.00
904.97	3902.00
905.40	3897.00
905.83	3807.00
906.26	3750.00
906.69	3722.00
907.11	3711.00
907.54	3642.00
907.97	3677.00
908.40	3638.00
908.82	3656.00
909.25	3676.00
909.68	3659.00
910.10	3677.00
910.53	3645.00
910.96	3729.00
911.39	3653.00
911.81	3704.00
912.24	3693.00
912.67	3544.00
913.09	3476.00
913.52	3590.00
913.95	3675.00
914.38	3741.00
914.80	3567.00
915.23	3499.00
915.66	3633.00
916.08	3708.00
916.51	3728.00
916.94	3554.00
917.36	3554.00
917.79	3615.00
918.22	3722.00
918.64	3675.00
919.07	3714.00
919.50	3715.00
919.92	3790.00
920.35	3738.00
920.78	3683.00
921.20	3680.00
921.63	3703.00
922.05	3704.00
922.48	3719.00
922.91	3679.00
923.33	3625.00
923.76	3633.00
924.18	3619.00
924.61	3617.00
925.04	3639.00
925.46	3627.00
925.89	3643.00
926.31	3656.00
926.74	3588.00
927.17	3488.00
927.59	3406.00
928.02	3345.00
928.44	3343.00
928.87	3344.00
929.29	3252.00
929.72	3234.00
930.15	3171.00
930.57	3141.00
931.00	3084.00
931.42	3012.00
931.85	2952.00
932.27	2978.00
932.70	2963.00
933.12	2867.00
933.55	2858.00
933.97	2834.00
934.40	2946.00
934.82	2924.00
935.25	2856.00
935.67	2897.00
936.10	2894.00
936.52	2835.00
936.95	2889.00
937.37	2840.00
937.80	2874.00
938.22	2945.00
938.65	3040.00
939.07	3059.00
939.50	2961.00
939.92	2973.00
940.35	2918.00
940.77	2913.00
941.19	2924.00
941.62	2921.00
942.04	2873.00
942.47	2860.00
942.89	2929.00
943.32	2832.00
943.74	2799.00
944.16	2898.00
944.59	2897.00
945.01	2868.00
945.44	2851.00
945.86	2867.00
946.29	2888.00
946.71	2899.00
947.13	2889.00
947.56	2886.00
947.98	2925.00
948.40	2972.00
948.83	2884.00
949.25	2835.00
949.68	2898.00
950.10	3036.00
950.52	3014.00
950.95	2954.00
951.37	2892.00
951.79	2901.00
952.22	2948.00
952.64	2989.00
953.06	3008.00
953.49	2979.00
953.91	2967.00
954.33	2989.00
954.76	2950.00
955.18	2982.00
955.60	2989.00
956.03	2966.00
956.45	3038.00
956.87	3127.00
957.30	3072.00
957.72	3067.00
958.14	3001.00
958.56	2965.00
958.99	3035.00
959.41	3096.00
959.83	3062.00
960.26	3134.00
960.68	3136.00
961.10	3117.00
961.52	3077.00
961.95	3100.00
962.37	3200.00
962.79	3138.00
963.21	3155.00
963.64	3126.00
964.06	3179.00
964.48	3214.00
964.90	3200.00
965.32	3169.00
965.75	3167.00
966.17	3226.00
966.59	3280.00
967.01	3330.00
967.44	3296.00
967.86	3333.00
968.28	3356.00
968.70	3371.00
969.12	3348.00
969.54	3363.00
969.97	3376.00
970.39	3337.00
970.81	3363.00
971.23	3352.00
971.65	3326.00
972.07	3308.00
972.50	3259.00
972.92	3278.00
973.34	3277.00
973.76	3317.00
974.18	3279.00
974.60	3264.00
975.02	3265.00
975.45	3250.00
975.87	3293.00
976.29	3331.00
976.71	3345.00
977.13	3290.00
977.55	3294.00
977.97	3318.00
978.39	3287.00
978.81	3324.00
979.24	3313.00
979.66	3346.00
980.08	3367.00
980.50	3360.00
980.92	3350.00
981.34	3331.00
981.76	3327.00
982.18	3349.00
982.60	3366.00
983.02	3380.00
983.44	3338.00
983.86	3323.00
984.28	3349.00
984.70	3379.00
985.12	3298.00
985.54	3347.00
985.96	3301.00
986.38	3369.00
986.80	3346.00
987.23	3351.00
987.65	3369.00
988.07	3368.00
988.49	3337.00
988.91	3355.00
989.33	3341.00
989.74	3333.00
990.16	3351.00
990.58	3364.00
991.00	3335.00
991.42	3297.00
991.84	3319.00
992.26	3336.00
992.68	3321.00
993.10	3323.00
993.52	3292.00
993.94	3301.00
994.36	3321.00
994.78	3331.00
995.20	3303.00
995.62	3302.00
996.04	3309.00
996.46	3320.00
996.88	3325.00
997.30	3311.00
997.71	3315.00
998.13	3340.00
998.55	3340.00
998.97	3325.00
999.39	3316.00
999.81	3326.00
1000.23	3326.00
1000.65	3341.00
1001.07	3340.00
1001.49	3306.00
1001.90	3335.00
1002.32	3308.00
1002.74	3295.00
1003.16	3304.00
1003.58	3292.00
1004.00	3289.00
1004.42	3304.00
1004.83	3286.00
1005.25	3294.00
1005.67	3303.00
1006.09	3276.00
1006.51	3283.00
1006.92	3275.00
1007.34	3267.00
1007.76	3274.00
1008.18	3256.00
1008.60	3299.00
1009.02	3252.00
1009.43	3293.00
1009.85	3281.00
1010.27	3285.00
1010.69	3288.00
1011.10	3251.00
1011.52	3252.00
1011.94	3261.00
1012.36	3238.00
1012.78	3267.00
1013.19	3222.00
1013.61	3184.00
1014.03	3222.00
1014.45	3224.00
1014.86	3197.00
1015.28	3215.00
1015.70	3200.00
1016.12	3211.00
1016.53	3194.00
1016.95	3184.00
1017.37	3183.00
1017.78	3179.00
1018.20	3181.00
1018.62	3145.00
1019.03	3167.00
1019.45	3166.00
1019.87	3142.00
1020.29	3142.00
1020.70	3115.00
1021.12	3157.00
1021.54	3159.00
1021.95	3138.00
1022.37	3129.00
1022.79	3110.00
1023.20	3130.00
1023.62	3104.00
1024.04	3097.00
1024.45	3105.00
1024.87	3099.00
1025.28	3107.00
1025.70	3078.00
1026.12	3087.00
1026.53	3101.00
1026.95	3079.00
1027.37	3097.00
1027.78	3111.00
1028.20	3078.00
1028.61	3080.00
1029.03	3041.00
1029.45	3083.00
1029.86	3023.00
1030.28	3037.00
1030.69	3067.00
1031.11	3042.00
1031.53	3014.00
1031.94	3009.00
1032.36	3030.00
1032.77	3008.00
1033.19	3002.00
1033.60	3015.00
1034.02	3001.00
1034.43	3015.00
1034.85	3009.00
1035.27	3002.00
1035.68	3000.00
1036.10	2983.00
1036.51	2979.00
1036.93	2964.00
1037.34	2989.00
1037.76	2963.00
1038.17	2966.00
1038.59	2956.00
1039.00	2973.00
1039.42	2967.00
1039.83	2943.00
1040.25	2947.00
1040.66	2920.00
1041.08	2939.00
1041.49	2925.00
1041.91	2909.00
1042.32	2917.00
1042.73	2926.00
1043.15	2902.00
1043.56	2923.00
1043.98	2911.00
1044.39	2916.00
1044.81	2900.00
1045.22	2901.00
1045.64	2899.00
1046.05	2893.00
1046.46	2890.00
1046.88	2865.00
1047.29	2880.00
1047.71	2872.00
1048.12	2887.00
1048.53	2873.00
1048.95	2876.00
1049.36	2857.00
1049.78	2870.00
1050.19	2871.00
1050.60	2851.00
1051.02	2848.00
1051.43	2858.00
1051.85	2835.00
1052.26	2840.00
1052.67	2830.00
1053.09	2854.00
1053.50	2825.00
1053.91	2831.00
1054.33	2830.00
1054.74	2830.00
1055.15	2824.00
1055.57	2797.00
1055.98	2805.00
1056.39	2821.00
1056.81	2790.00
1057.22	2799.00
1057.63	2799.00
1058.05	2788.00
1058.46	2797.00
1058.87	2780.00
1059.28	2789.00
1059.70	2791.00
1060.11	2784.00
1060.52	2774.00
1060.94	2789.00
1061.35	2763.00
1061.76	2777.00
1062.17	2768.00
1062.59	2758.00
1063.00	2760.00
1063.41	2752.00
1063.82	2765.00
1064.24	2764.00
1064.65	2762.00
1065.06	2755.00
1065.47	2747.00
1065.89	2746.00
1066.30	2741.00
1066.71	2756.00
1067.12	2746.00
1067.53	2746.00
1067.95	2743.00
1068.36	2730.00
1068.77	2756.00
1069.18	2733.00
1069.59	2736.00
1070.00	2728.00
1070.42	2730.00
1070.83	2726.00
1071.24	2732.00
1071.65	2712.00
1072.06	2712.00
1072.47	2718.00
1072.89	2714.00
1073.30	2717.00
1073.71	2726.00
1074.12	2716.00
1074.53	2724.00
1074.94	2707.00
1075.35	2698.00
1075.77	2723.00
1076.18	2704.00
1076.59	2699.00
1077.00	2699.00
1077.41	2703.00
1077.82	2692.00
1078.23	2694.00
1078.64	2699.00
1079.05	2700.00
1079.46	2698.00
1079.87	2689.00
1080.29	2693.00
1080.70	2686.00
1081.11	2691.00
1081.52	2678.00
1081.93	2685.00
1082.34	2684.00
1082.75	2670.00
1083.16	2679.00
1083.57	2671.00
1083.98	2683.00
1084.39	2668.00
1084.80	2673.00
1085.21	2678.00
1085.62	2662.00
1086.03	2686.00
1086.44	2662.00
1086.85	2664.00
1087.26	2678.00
1087.67	2669.00
1088.08	2671.00
1088.49	2668.00
1088.90	2663.00
1089.31	2666.00
1089.72	2665.00
1090.13	2648.00
1090.54	2652.00
1090.95	2652.00
1091.36	2652.00
1091.77	2658.00
1092.18	2632.00
1092.59	2649.00
1093.00	2638.00
1093.40	2651.00
1093.81	2636.00
1094.22	2647.00
1094.63	2650.00
1095.04	2641.00
1095.45	2641.00
1095.86	2635.00
1096.27	2638.00
1096.68	2629.00
1097.09	2640.00
1097.50	2631.00
1097.90	2638.00
1098.31	2635.00
1098.72	2627.00
1099.13	2624.00
1099.54	2630.00
1099.95	2630.00
1100.36	2619.00
1100.76	2629.00
1101.17	2619.00
1101.58	2623.00
1101.99	2621.00
1102.40	2622.00
1102.81	2622.00
1103.22	2623.00
1103.62	2614.00
1104.03	2616.00
1104.44	2617.00
1104.85	2615.00
1105.26	2618.00
1105.66	2622.00
1106.07	2616.00
1106.48	2612.00
1106.89	2616.00
1107.30	2615.00
1107.70	2608.00
1108.11	2618.00
1108.52	2607.00
1108.93	2614.00
1109.33	2614.00
1109.74	2611.00
1110.15	2611.00
1110.56	2607.00
1110.96	2605.00
1111.37	2611.00
1111.78	2602.00
1112.19	2602.00
1112.59	2609.00
1113.00	2615.00
1113.41	2601.00
1113.81	2604.00
1114.22	2600.00
1114.63	2578.00
1115.03	2572.00
1115.44	2581.00
1115.85	2577.00
>>>>>End Processed Spectral Data<<<<<
