SpectraSuite Data File
++++++++++++++++++++++++++++++++++++
Date: Thu Aug 05 09:52:33 EEST 2021
User: CanSEE
Dark Spectrum Present: No
Reference Spectrum Present: No
Number of Sampled Component Spectra: 1
Spectrometers: MAYP112785
Integration Time (usec): 10000 (MAYP112785)
Spectra Averaged: 1 (MAYP112785)
Boxcar Smoothing: 0 (MAYP112785)
Correct for Electrical Dark: No (MAYP112785)
Strobe/Lamp Enabled: No (MAYP112785)
Correct for Detector Non-linearity: No (MAYP112785)
Correct for Stray Light: No (MAYP112785)
Number of Pixels in Processed Spectrum: 2068
>>>>>Begin Processed Spectral Data<<<<<
198.35	3435.00
198.82	2473.00
199.30	2577.00
199.77	2558.00
200.24	2577.00
200.71	2581.00
201.18	2581.00
201.65	2587.00
202.13	2585.00
202.60	2592.00
203.07	2579.00
203.54	2586.00
204.01	2578.00
204.48	2583.00
204.96	2575.00
205.43	2578.00
205.90	2580.00
206.37	2584.00
206.84	2579.00
207.31	2576.00
207.78	2580.00
208.26	2585.00
208.73	2584.00
209.20	2588.00
209.67	2582.00
210.14	2583.00
210.61	2586.00
211.08	2582.00
211.56	2584.00
212.03	2582.00
212.50	2583.00
212.97	2575.00
213.44	2573.00
213.91	2579.00
214.38	2578.00
214.85	2574.00
215.33	2586.00
215.80	2579.00
216.27	2580.00
216.74	2583.00
217.21	2580.00
217.68	2590.00
218.15	2582.00
218.62	2589.00
219.09	2576.00
219.57	2577.00
220.04	2579.00
220.51	2580.00
220.98	2586.00
221.45	2578.00
221.92	2579.00
222.39	2583.00
222.86	2579.00
223.33	2589.00
223.80	2576.00
224.27	2582.00
224.74	2579.00
225.22	2583.00
225.69	2582.00
226.16	2579.00
226.63	2580.00
227.10	2581.00
227.57	2577.00
228.04	2581.00
228.51	2588.00
228.98	2588.00
229.45	2579.00
229.92	2578.00
230.39	2579.00
230.86	2577.00
231.33	2578.00
231.80	2583.00
232.27	2583.00
232.75	2570.00
233.22	2579.00
233.69	2589.00
234.16	2584.00
234.63	2583.00
235.10	2577.00
235.57	2579.00
236.04	2581.00
236.51	2588.00
236.98	2582.00
237.45	2586.00
237.92	2581.00
238.39	2580.00
238.86	2580.00
239.33	2623.00
239.80	2579.00
240.27	2578.00
240.74	2583.00
241.21	2584.00
241.68	2584.00
242.15	2577.00
242.62	2585.00
243.09	2588.00
243.56	2580.00
244.03	2585.00
244.50	2581.00
244.97	2591.00
245.44	2594.00
245.91	2579.00
246.38	2576.00
246.85	2588.00
247.32	2582.00
247.79	2581.00
248.26	2582.00
248.73	2581.00
249.20	2581.00
249.67	2579.00
250.14	2585.00
250.61	2581.00
251.08	2585.00
251.55	2575.00
252.02	2584.00
252.49	2582.00
252.96	2584.00
253.43	2576.00
253.90	2584.00
254.37	2582.00
254.84	2583.00
255.31	2583.00
255.77	2582.00
256.24	2581.00
256.71	2586.00
257.18	2582.00
257.65	2580.00
258.12	2582.00
258.59	2578.00
259.06	2590.00
259.53	2583.00
260.00	2579.00
260.47	2583.00
260.94	2580.00
261.41	2584.00
261.88	2579.00
262.35	2587.00
262.81	2577.00
263.28	2585.00
263.75	2586.00
264.22	2581.00
264.69	2594.00
265.16	2583.00
265.63	2580.00
266.10	2583.00
266.57	2584.00
267.04	2580.00
267.51	2598.00
267.97	2585.00
268.44	2578.00
268.91	2580.00
269.38	2588.00
269.85	2580.00
270.32	2581.00
270.79	2583.00
271.26	2577.00
271.73	2585.00
272.19	2583.00
272.66	2576.00
273.13	2585.00
273.60	2583.00
274.07	2577.00
274.54	2576.00
275.01	2580.00
275.48	2579.00
275.94	2578.00
276.41	2583.00
276.88	2582.00
277.35	2577.00
277.82	2581.00
278.29	2584.00
278.76	2583.00
279.22	2585.00
279.69	2586.00
280.16	2583.00
280.63	2587.00
281.10	2587.00
281.57	2589.00
282.04	2585.00
282.50	2578.00
282.97	2588.00
283.44	2583.00
283.91	2586.00
284.38	2585.00
284.85	2588.00
285.31	2582.00
285.78	2588.00
286.25	2580.00
286.72	2585.00
287.19	2578.00
287.65	2581.00
288.12	2580.00
288.59	2583.00
289.06	2586.00
289.53	2575.00
289.99	2579.00
290.46	2586.00
290.93	2587.00
291.40	2582.00
291.87	2583.00
292.33	2578.00
292.80	2582.00
293.27	2581.00
293.74	2579.00
294.21	2579.00
294.67	2582.00
295.14	2582.00
295.61	2580.00
296.08	2583.00
296.54	2586.00
297.01	2584.00
297.48	2586.00
297.95	2585.00
298.42	2586.00
298.88	2580.00
299.35	2586.00
299.82	2588.00
300.29	2587.00
300.75	2577.00
301.22	2592.00
301.69	2586.00
302.16	2587.00
302.62	2584.00
303.09	2586.00
303.56	2587.00
304.03	2582.00
304.49	2586.00
304.96	2591.00
305.43	2588.00
305.90	2584.00
306.36	2582.00
306.83	2591.00
307.30	2596.00
307.76	2598.00
308.23	2593.00
308.70	2596.00
309.17	2595.00
309.63	2594.00
310.10	2605.00
310.57	2600.00
311.03	2607.00
311.50	2605.00
311.97	2611.00
312.44	2605.00
312.90	2618.00
313.37	2619.00
313.84	2622.00
314.30	2619.00
314.77	2615.00
315.24	2632.00
315.70	2626.00
316.17	2641.00
316.64	2638.00
317.10	2646.00
317.57	2657.00
318.04	2644.00
318.50	2665.00
318.97	2661.00
319.44	2660.00
319.90	2669.00
320.37	2670.00
320.84	2676.00
321.30	2674.00
321.77	2668.00
322.24	2676.00
322.70	2674.00
323.17	2675.00
323.64	2685.00
324.10	2709.00
324.57	2705.00
325.04	2713.00
325.50	2718.00
325.97	2720.00
326.44	2751.00
326.90	2749.00
327.37	2758.00
327.84	2744.00
328.30	2736.00
328.77	2748.00
329.23	2759.00
329.70	2783.00
330.17	2797.00
330.63	2775.00
331.10	2780.00
331.56	2763.00
332.03	2758.00
332.50	2766.00
332.96	2779.00
333.43	2767.00
333.90	2766.00
334.36	2765.00
334.83	2785.00
335.29	2789.00
335.76	2776.00
336.22	2782.00
336.69	2754.00
337.16	2768.00
337.62	2777.00
338.09	2783.00
338.55	2770.00
339.02	2792.00
339.49	2799.00
339.95	2801.00
340.42	2822.00
340.88	2814.00
341.35	2803.00
341.81	2810.00
342.28	2816.00
342.75	2835.00
343.21	2808.00
343.68	2836.00
344.14	2803.00
344.61	2787.00
345.07	2818.00
345.54	2835.00
346.00	2846.00
346.47	2821.00
346.93	2827.00
347.40	2835.00
347.87	2840.00
348.33	2841.00
348.80	2853.00
349.26	2849.00
349.73	2847.00
350.19	2878.00
350.66	2907.00
351.12	2906.00
351.59	2876.00
352.05	2876.00
352.52	2858.00
352.98	2855.00
353.45	2891.00
353.91	2897.00
354.38	2919.00
354.84	2925.00
355.31	2911.00
355.77	2893.00
356.24	2883.00
356.70	2877.00
357.17	2838.00
357.63	2871.00
358.10	2839.00
358.56	2846.00
359.03	2855.00
359.49	2892.00
359.96	2909.00
360.42	2911.00
360.89	2884.00
361.35	2882.00
361.82	2880.00
362.28	2881.00
362.75	2942.00
363.21	2921.00
363.67	2924.00
364.14	2931.00
364.60	2947.00
365.07	2959.00
365.53	2950.00
366.00	2991.00
366.46	3007.00
366.93	2996.00
367.39	2989.00
367.86	2995.00
368.32	2994.00
368.78	2967.00
369.25	2999.00
369.71	3029.00
370.18	3005.00
370.64	3009.00
371.11	2987.00
371.57	2976.00
372.03	2994.00
372.50	2960.00
372.96	2966.00
373.43	2940.00
373.89	2910.00
374.35	2935.00
374.82	2938.00
375.28	2960.00
375.75	3017.00
376.21	3006.00
376.67	3046.00
377.14	3025.00
377.60	3082.00
378.07	3086.00
378.53	3118.00
378.99	3059.00
379.46	3035.00
379.92	3044.00
380.39	3031.00
380.85	3069.00
381.31	3059.00
381.78	3007.00
382.24	2981.00
382.70	2943.00
383.17	2919.00
383.63	2941.00
384.09	2948.00
384.56	3007.00
385.02	3045.00
385.48	3056.00
385.95	3062.00
386.41	3039.00
386.88	3054.00
387.34	3074.00
387.80	3054.00
388.27	3049.00
388.73	3069.00
389.19	3106.00
389.66	3140.00
390.12	3154.00
390.58	3152.00
391.05	3178.00
391.51	3166.00
391.97	3167.00
392.43	3094.00
392.90	3036.00
393.36	2958.00
393.82	2974.00
394.29	3043.00
394.75	3127.00
395.21	3161.00
395.68	3199.00
396.14	3171.00
396.60	3120.00
397.07	3051.00
397.53	3111.00
397.99	3281.00
398.45	3396.00
398.92	3427.00
399.38	3451.00
399.84	3488.00
400.31	3491.00
400.77	3552.00
401.23	3475.00
401.69	3607.00
402.16	3593.00
402.62	3574.00
403.08	3558.00
403.54	3543.00
404.01	3551.00
404.47	3542.00
404.93	3544.00
405.39	3531.00
405.86	3546.00
406.32	3522.00
406.78	3541.00
407.24	3554.00
407.71	3586.00
408.17	3603.00
408.63	3643.00
409.09	3624.00
409.56	3621.00
410.02	3617.00
410.48	3566.00
410.94	3658.00
411.40	3691.00
411.87	3714.00
412.33	3744.00
412.79	3769.00
413.25	3727.00
413.71	3702.00
414.18	3730.00
414.64	3755.00
415.10	3732.00
415.56	3769.00
416.02	3708.00
416.49	3760.00
416.95	3790.00
417.41	3748.00
417.87	3702.00
418.33	3737.00
418.80	3742.00
419.26	3750.00
419.72	3763.00
420.18	3769.00
420.64	3768.00
421.10	3784.00
421.57	3828.00
422.03	3811.00
422.49	3796.00
422.95	3746.00
423.41	3763.00
423.87	3820.00
424.34	3805.00
424.80	3825.00
425.26	3787.00
425.72	3770.00
426.18	3756.00
426.64	3803.00
427.10	3788.00
427.57	3722.00
428.03	3786.00
428.49	3737.00
428.95	3748.00
429.41	3685.00
429.87	3619.00
430.33	3622.00
430.79	3605.00
431.26	3682.00
431.72	3756.00
432.18	3926.00
432.64	3878.00
433.10	3867.00
433.56	3901.00
434.02	3890.00
434.48	3886.00
434.94	3871.00
435.40	4048.00
435.87	4003.00
436.33	4028.00
436.79	4026.00
437.25	4019.00
437.71	3956.00
438.17	3974.00
438.63	3890.00
439.09	3906.00
439.55	3989.00
440.01	4032.00
440.47	4147.00
440.93	4058.00
441.39	4114.00
441.85	4166.00
442.32	4220.00
442.78	4171.00
443.24	4142.00
443.70	4202.00
444.16	4204.00
444.62	4232.00
445.08	4213.00
445.54	4197.00
446.00	4175.00
446.46	4211.00
446.92	4246.00
447.38	4279.00
447.84	4325.00
448.30	4328.00
448.76	4363.00
449.22	4393.00
449.68	4384.00
450.14	4385.00
450.60	4421.00
451.06	4488.00
451.52	4445.00
451.98	4388.00
452.44	4376.00
452.90	4330.00
453.36	4354.00
453.82	4363.00
454.28	4391.00
454.74	4437.00
455.20	4431.00
455.66	4411.00
456.12	4473.00
456.58	4547.00
457.04	4551.00
457.50	4516.00
457.96	4532.00
458.42	4471.00
458.88	4422.00
459.34	4430.00
459.80	4518.00
460.26	4531.00
460.72	4515.00
461.18	4491.00
461.64	4536.00
462.10	4534.00
462.55	4595.00
463.01	4616.00
463.47	4603.00
463.93	4594.00
464.39	4595.00
464.85	4567.00
465.31	4511.00
465.77	4592.00
466.23	4587.00
466.69	4568.00
467.15	4546.00
467.61	4551.00
468.07	4519.00
468.52	4581.00
468.98	4592.00
469.44	4613.00
469.90	4546.00
470.36	4584.00
470.82	4574.00
471.28	4590.00
471.74	4618.00
472.20	4637.00
472.66	4623.00
473.11	4682.00
473.57	4669.00
474.03	4625.00
474.49	4658.00
474.95	4675.00
475.41	4694.00
475.87	4653.00
476.33	4686.00
476.78	4665.00
477.24	4683.00
477.70	4720.00
478.16	4799.00
478.62	4763.00
479.08	4749.00
479.54	4792.00
479.99	4769.00
480.45	4775.00
480.91	4765.00
481.37	4740.00
481.83	4776.00
482.29	4801.00
482.74	4801.00
483.20	4773.00
483.66	4738.00
484.12	4774.00
484.58	4684.00
485.04	4627.00
485.49	4598.00
485.95	4568.00
486.41	4509.00
486.87	4483.00
487.33	4592.00
487.78	4717.00
488.24	4671.00
488.70	4754.00
489.16	4771.00
489.62	4740.00
490.07	4833.00
490.53	4816.00
490.99	4789.00
491.45	4736.00
491.90	4797.00
492.36	4713.00
492.82	4796.00
493.28	4834.00
493.74	4857.00
494.19	4818.00
494.65	4816.00
495.11	4890.00
495.57	4903.00
496.02	4807.00
496.48	4865.00
496.94	4860.00
497.40	4805.00
497.85	4804.00
498.31	4849.00
498.77	4810.00
499.23	4826.00
499.68	4791.00
500.14	4809.00
500.60	4759.00
501.06	4752.00
501.51	4745.00
501.97	4748.00
502.43	4777.00
502.88	4823.00
503.34	4758.00
503.80	4812.00
504.26	4795.00
504.71	4814.00
505.17	4928.00
505.63	4933.00
506.08	4863.00
506.54	4954.00
507.00	4840.00
507.45	4809.00
507.91	4866.00
508.37	4857.00
508.82	4933.00
509.28	4941.00
509.74	4934.00
510.19	4902.00
510.65	4942.00
511.11	4953.00
511.56	4925.00
512.02	4947.00
512.48	4948.00
512.93	4894.00
513.39	4830.00
513.85	4830.00
514.30	4882.00
514.76	4856.00
515.22	4916.00
515.67	4836.00
516.13	4826.00
516.59	4772.00
517.04	4700.00
517.50	4683.00
517.95	4644.00
518.41	4758.00
518.87	4747.00
519.32	4805.00
519.78	4907.00
520.24	4897.00
520.69	4934.00
521.15	4947.00
521.60	4935.00
522.06	4936.00
522.52	4975.00
522.97	4982.00
523.43	4983.00
523.88	4997.00
524.34	5019.00
524.80	5066.00
525.25	5027.00
525.71	5003.00
526.16	4882.00
526.62	4879.00
527.07	4900.00
527.53	4974.00
527.99	4999.00
528.44	5027.00
528.90	5065.00
529.35	5125.00
529.81	5136.00
530.26	5082.00
530.72	5150.00
531.17	5105.00
531.63	5117.00
532.09	5098.00
532.54	5061.00
533.00	4990.00
533.45	5027.00
533.91	5047.00
534.36	5103.00
534.82	5126.00
535.27	5131.00
535.73	5177.00
536.18	5125.00
536.64	5119.00
537.09	5157.00
537.55	5097.00
538.00	5081.00
538.46	5159.00
538.91	5115.00
539.37	5111.00
539.82	5048.00
540.28	5030.00
540.73	5044.00
541.19	5028.00
541.64	5052.00
542.10	5158.00
542.55	5139.00
543.01	5173.00
543.46	5111.00
543.92	5124.00
544.37	5120.00
544.83	5174.00
545.28	5158.00
545.74	5186.00
546.19	5191.00
546.64	5156.00
547.10	5126.00
547.55	5146.00
548.01	5130.00
548.46	5106.00
548.92	5149.00
549.37	5166.00
549.83	5157.00
550.28	5162.00
550.73	5189.00
551.19	5175.00
551.64	5173.00
552.10	5195.00
552.55	5115.00
553.00	5191.00
553.46	5168.00
553.91	5221.00
554.37	5238.00
554.82	5252.00
555.28	5189.00
555.73	5174.00
556.18	5160.00
556.64	5192.00
557.09	5132.00
557.54	5176.00
558.00	5148.00
558.45	5121.00
558.91	5082.00
559.36	5062.00
559.81	5120.00
560.27	5164.00
560.72	5199.00
561.17	5174.00
561.63	5255.00
562.08	5145.00
562.54	5180.00
562.99	5215.00
563.44	5214.00
563.90	5160.00
564.35	5211.00
564.80	5212.00
565.26	5132.00
565.71	5152.00
566.16	5126.00
566.62	5118.00
567.07	5141.00
567.52	5244.00
567.98	5181.00
568.43	5124.00
568.88	5144.00
569.34	5190.00
569.79	5171.00
570.24	5152.00
570.69	5110.00
571.15	5096.00
571.60	5154.00
572.05	5131.00
572.51	5140.00
572.96	5239.00
573.41	5195.00
573.86	5179.00
574.32	5204.00
574.77	5193.00
575.22	5120.00
575.68	5154.00
576.13	5144.00
576.58	5180.00
577.03	5159.00
577.49	5147.00
577.94	5149.00
578.39	5181.00
578.84	5138.00
579.30	5162.00
579.75	5177.00
580.20	5163.00
580.65	5252.00
581.11	5209.00
581.56	5278.00
582.01	5280.00
582.46	5251.00
582.92	5272.00
583.37	5334.00
583.82	5331.00
584.27	5331.00
584.72	5298.00
585.18	5209.00
585.63	5208.00
586.08	5192.00
586.53	5262.00
586.98	5289.00
587.44	5276.00
587.89	5164.00
588.34	5115.00
588.79	5011.00
589.24	4945.00
589.70	4920.00
590.15	4943.00
590.60	5060.00
591.05	5163.00
591.50	5124.00
591.96	5142.00
592.41	5186.00
592.86	5151.00
593.31	5173.00
593.76	5205.00
594.21	5150.00
594.66	5148.00
595.12	5222.00
595.57	5144.00
596.02	5177.00
596.47	5186.00
596.92	5176.00
597.37	5241.00
597.82	5158.00
598.28	5156.00
598.73	5164.00
599.18	5263.00
599.63	5165.00
600.08	5188.00
600.53	5139.00
600.98	5186.00
601.43	5171.00
601.88	5169.00
602.34	5168.00
602.79	5231.00
603.24	5275.00
603.69	5295.00
604.14	5253.00
604.59	5251.00
605.04	5325.00
605.49	5256.00
605.94	5248.00
606.39	5258.00
606.84	5300.00
607.30	5305.00
607.75	5265.00
608.20	5214.00
608.65	5282.00
609.10	5224.00
609.55	5204.00
610.00	5239.00
610.45	5221.00
610.90	5292.00
611.35	5263.00
611.80	5296.00
612.25	5220.00
612.70	5302.00
613.15	5228.00
613.60	5217.00
614.05	5230.00
614.50	5185.00
614.95	5256.00
615.40	5255.00
615.85	5177.00
616.30	5169.00
616.75	5136.00
617.20	5158.00
617.65	5231.00
618.10	5267.00
618.55	5255.00
619.00	5262.00
619.45	5273.00
619.90	5298.00
620.35	5254.00
620.80	5305.00
621.25	5252.00
621.70	5208.00
622.15	5236.00
622.60	5271.00
623.05	5253.00
623.50	5191.00
623.95	5203.00
624.40	5208.00
624.85	5174.00
625.30	5184.00
625.75	5166.00
626.20	5227.00
626.65	5209.00
627.10	5221.00
627.55	5158.00
627.99	5112.00
628.44	5090.00
628.89	5094.00
629.34	5183.00
629.79	5139.00
630.24	5159.00
630.69	5200.00
631.14	5204.00
631.59	5193.00
632.04	5145.00
632.49	5219.00
632.94	5186.00
633.38	5176.00
633.83	5217.00
634.28	5233.00
634.73	5218.00
635.18	5227.00
635.63	5325.00
636.08	5241.00
636.53	5282.00
636.97	5309.00
637.42	5265.00
637.87	5303.00
638.32	5287.00
638.77	5340.00
639.22	5332.00
639.67	5327.00
640.11	5253.00
640.56	5254.00
641.01	5240.00
641.46	5255.00
641.91	5297.00
642.36	5273.00
642.81	5307.00
643.25	5307.00
643.70	5269.00
644.15	5318.00
644.60	5334.00
645.05	5355.00
645.49	5253.00
645.94	5298.00
646.39	5235.00
646.84	5243.00
647.29	5197.00
647.73	5210.00
648.18	5260.00
648.63	5266.00
649.08	5235.00
649.53	5141.00
649.97	5097.00
650.42	5229.00
650.87	5291.00
651.32	5215.00
651.77	5264.00
652.21	5276.00
652.66	5223.00
653.11	5260.00
653.56	5281.00
654.00	5300.00
654.45	5237.00
654.90	5150.00
655.35	5130.00
655.79	5019.00
656.24	4805.00
656.69	4812.00
657.14	5005.00
657.58	5094.00
658.03	5197.00
658.48	5289.00
658.92	5221.00
659.37	5240.00
659.82	5271.00
660.27	5226.00
660.71	5275.00
661.16	5314.00
661.61	5263.00
662.05	5325.00
662.50	5285.00
662.95	5241.00
663.39	5259.00
663.84	5270.00
664.29	5322.00
664.74	5288.00
665.18	5346.00
665.63	5298.00
666.08	5299.00
666.52	5307.00
666.97	5292.00
667.42	5317.00
667.86	5297.00
668.31	5269.00
668.76	5319.00
669.20	5296.00
669.65	5280.00
670.09	5284.00
670.54	5275.00
670.99	5287.00
671.43	5263.00
671.88	5246.00
672.33	5242.00
672.77	5246.00
673.22	5252.00
673.66	5245.00
674.11	5254.00
674.56	5265.00
675.00	5236.00
675.45	5272.00
675.90	5327.00
676.34	5295.00
676.79	5251.00
677.23	5247.00
677.68	5262.00
678.12	5187.00
678.57	5245.00
679.02	5247.00
679.46	5227.00
679.91	5266.00
680.35	5286.00
680.80	5251.00
681.25	5180.00
681.69	5244.00
682.14	5229.00
682.58	5210.00
683.03	5242.00
683.47	5266.00
683.92	5197.00
684.36	5181.00
684.81	5150.00
685.25	5191.00
685.70	5085.00
686.15	5076.00
686.59	4863.00
687.04	4505.00
687.48	4426.00
687.93	4511.00
688.37	4709.00
688.82	4723.00
689.26	4705.00
689.71	4714.00
690.15	4740.00
690.60	4835.00
691.04	4886.00
691.49	4903.00
691.93	4993.00
692.38	4960.00
692.82	4911.00
693.27	4925.00
693.71	4918.00
694.16	4906.00
694.60	4938.00
695.04	4892.00
695.49	4927.00
695.93	4897.00
696.38	5022.00
696.82	5045.00
697.27	5047.00
697.71	5053.00
698.16	5057.00
698.60	5024.00
699.04	4966.00
699.49	4963.00
699.93	4961.00
700.38	4971.00
700.82	4957.00
701.27	4966.00
701.71	4926.00
702.15	4990.00
702.60	4890.00
703.04	4951.00
703.49	4970.00
703.93	4980.00
704.37	5065.00
704.82	5041.00
705.26	5057.00
705.71	5013.00
706.15	4971.00
706.59	5016.00
707.04	4993.00
707.48	4957.00
707.93	4967.00
708.37	5067.00
708.81	5042.00
709.26	5063.00
709.70	5002.00
710.14	5055.00
710.59	5066.00
711.03	5005.00
711.47	4960.00
711.92	5005.00
712.36	4980.00
712.80	5013.00
713.25	4974.00
713.69	4979.00
714.13	5029.00
714.58	5011.00
715.02	4931.00
715.46	4862.00
715.91	4901.00
716.35	4791.00
716.79	4671.00
717.24	4534.00
717.68	4410.00
718.12	4459.00
718.57	4325.00
719.01	4288.00
719.45	4325.00
719.89	4298.00
720.34	4252.00
720.78	4408.00
721.22	4524.00
721.66	4656.00
722.11	4770.00
722.55	4679.00
722.99	4640.00
723.44	4429.00
723.88	4444.00
724.32	4406.00
724.76	4443.00
725.21	4397.00
725.65	4433.00
726.09	4432.00
726.53	4436.00
726.97	4518.00
727.42	4486.00
727.86	4406.00
728.30	4498.00
728.74	4489.00
729.19	4401.00
729.63	4480.00
730.07	4486.00
730.51	4487.00
730.95	4492.00
731.40	4536.00
731.84	4520.00
732.28	4645.00
732.72	4634.00
733.16	4729.00
733.61	4710.00
734.05	4748.00
734.49	4740.00
734.93	4704.00
735.37	4773.00
735.81	4738.00
736.26	4723.00
736.70	4737.00
737.14	4711.00
737.58	4747.00
738.02	4728.00
738.46	4695.00
738.90	4649.00
739.35	4723.00
739.79	4715.00
740.23	4736.00
740.67	4767.00
741.11	4762.00
741.55	4703.00
741.99	4737.00
742.44	4763.00
742.88	4707.00
743.32	4795.00
743.76	4813.00
744.20	4795.00
744.64	4746.00
745.08	4722.00
745.52	4767.00
745.96	4821.00
746.40	4807.00
746.84	4772.00
747.29	4883.00
747.73	4776.00
748.17	4838.00
748.61	4790.00
749.05	4774.00
749.49	4767.00
749.93	4753.00
750.37	4782.00
750.81	4800.00
751.25	4813.00
751.69	4771.00
752.13	4762.00
752.57	4792.00
753.01	4751.00
753.45	4737.00
753.89	4798.00
754.33	4861.00
754.77	4844.00
755.21	4788.00
755.65	4788.00
756.09	4763.00
756.53	4815.00
756.97	4767.00
757.41	4718.00
757.85	4737.00
758.29	4720.00
758.73	4697.00
759.17	4489.00
759.61	3962.00
760.05	3342.00
760.49	2987.00
760.93	2939.00
761.37	3123.00
761.81	3507.00
762.25	3633.00
762.69	3467.00
763.13	3344.00
763.57	3364.00
764.01	3430.00
764.45	3582.00
764.89	3667.00
765.33	3859.00
765.77	3993.00
766.21	4110.00
766.65	4228.00
767.09	4346.00
767.53	4480.00
767.96	4547.00
768.40	4558.00
768.84	4619.00
769.28	4575.00
769.72	4593.00
770.16	4614.00
770.60	4659.00
771.04	4684.00
771.48	4627.00
771.92	4648.00
772.35	4689.00
772.79	4705.00
773.23	4670.00
773.67	4730.00
774.11	4640.00
774.55	4645.00
774.99	4586.00
775.43	4646.00
775.86	4681.00
776.30	4635.00
776.74	4727.00
777.18	4663.00
777.62	4654.00
778.06	4669.00
778.50	4659.00
778.93	4611.00
779.37	4608.00
779.81	4595.00
780.25	4658.00
780.69	4633.00
781.12	4618.00
781.56	4598.00
782.00	4663.00
782.44	4604.00
782.88	4637.00
783.32	4571.00
783.75	4587.00
784.19	4625.00
784.63	4619.00
785.07	4559.00
785.50	4581.00
785.94	4549.00
786.38	4548.00
786.82	4586.00
787.26	4513.00
787.69	4537.00
788.13	4554.00
788.57	4510.00
789.01	4527.00
789.44	4506.00
789.88	4456.00
790.32	4495.00
790.76	4453.00
791.19	4385.00
791.63	4369.00
792.07	4396.00
792.51	4407.00
792.94	4391.00
793.38	4393.00
793.82	4447.00
794.25	4430.00
794.69	4422.00
795.13	4394.00
795.56	4390.00
796.00	4405.00
796.44	4353.00
796.88	4367.00
797.31	4374.00
797.75	4373.00
798.19	4363.00
798.62	4365.00
799.06	4391.00
799.50	4405.00
799.93	4345.00
800.37	4329.00
800.81	4360.00
801.24	4345.00
801.68	4332.00
802.12	4372.00
802.55	4320.00
802.99	4245.00
803.43	4243.00
803.86	4344.00
804.30	4307.00
804.73	4283.00
805.17	4296.00
805.61	4361.00
806.04	4322.00
806.48	4404.00
806.92	4342.00
807.35	4308.00
807.79	4307.00
808.22	4244.00
808.66	4227.00
809.10	4240.00
809.53	4270.00
809.97	4204.00
810.40	4218.00
810.84	4215.00
811.27	4165.00
811.71	4162.00
812.15	4173.00
812.58	4115.00
813.02	4144.00
813.45	3998.00
813.89	4019.00
814.32	3966.00
814.76	3915.00
815.19	3835.00
815.63	3845.00
816.07	3836.00
816.50	3770.00
816.94	3789.00
817.37	3901.00
817.81	3772.00
818.24	3837.00
818.68	3853.00
819.11	3907.00
819.55	3892.00
819.98	3869.00
820.42	3955.00
820.85	4048.00
821.29	4027.00
821.72	3962.00
822.16	3901.00
822.59	3747.00
823.03	3589.00
823.46	3730.00
823.90	3916.00
824.33	3975.00
824.77	4025.00
825.20	4089.00
825.63	4005.00
826.07	3987.00
826.50	4001.00
826.94	4031.00
827.37	3896.00
827.81	3832.00
828.24	3884.00
828.68	3883.00
829.11	3886.00
829.54	3873.00
829.98	3873.00
830.41	3908.00
830.85	3981.00
831.28	3957.00
831.71	3940.00
832.15	3965.00
832.58	3943.00
833.02	3955.00
833.45	3936.00
833.88	3942.00
834.32	3938.00
834.75	3973.00
835.19	3996.00
835.62	4026.00
836.05	3998.00
836.49	4046.00
836.92	4023.00
837.35	4049.00
837.79	4070.00
838.22	4082.00
838.66	4073.00
839.09	4121.00
839.52	4087.00
839.96	4081.00
840.39	4087.00
840.82	4070.00
841.26	4053.00
841.69	4024.00
842.12	4043.00
842.56	4048.00
842.99	4025.00
843.42	4030.00
843.85	4054.00
844.29	4042.00
844.72	4040.00
845.15	4060.00
845.59	4122.00
846.02	4123.00
846.45	4083.00
846.88	4073.00
847.32	4057.00
847.75	4086.00
848.18	4019.00
848.62	4018.00
849.05	3998.00
849.48	3911.00
849.91	3853.00
850.35	3939.00
850.78	4026.00
851.21	4023.00
851.64	3990.00
852.08	4034.00
852.51	4067.00
852.94	4066.00
853.37	4013.00
853.80	3883.00
854.24	3747.00
854.67	3811.00
855.10	3895.00
855.53	3970.00
855.97	3958.00
856.40	4024.00
856.83	4020.00
857.26	4016.00
857.69	4021.00
858.13	4015.00
858.56	4020.00
858.99	4034.00
859.42	4037.00
859.85	4028.00
860.28	4053.00
860.72	4009.00
861.15	4027.00
861.58	3956.00
862.01	4005.00
862.44	3978.00
862.87	3991.00
863.30	4012.00
863.74	3989.00
864.17	3963.00
864.60	3972.00
865.03	3964.00
865.46	3950.00
865.89	3793.00
866.32	3799.00
866.75	3907.00
867.19	3991.00
867.62	4009.00
868.05	4003.00
868.48	3957.00
868.91	4001.00
869.34	3951.00
869.77	3977.00
870.20	3981.00
870.63	3945.00
871.06	3931.00
871.49	3963.00
871.93	3941.00
872.36	3936.00
872.79	3914.00
873.22	3927.00
873.65	3961.00
874.08	3939.00
874.51	3942.00
874.94	3911.00
875.37	3924.00
875.80	3963.00
876.23	3947.00
876.66	3935.00
877.09	3914.00
877.52	3894.00
877.95	3926.00
878.38	3948.00
878.81	3881.00
879.24	3900.00
879.67	3927.00
880.10	3869.00
880.53	3855.00
880.96	3853.00
881.39	3904.00
881.82	3922.00
882.25	3938.00
882.68	3923.00
883.11	3967.00
883.54	3908.00
883.97	3915.00
884.40	3926.00
884.83	3866.00
885.26	3908.00
885.69	3886.00
886.12	3849.00
886.55	3843.00
886.98	3901.00
887.40	3868.00
887.83	3890.00
888.26	3915.00
888.69	3916.00
889.12	3903.00
889.55	3858.00
889.98	3900.00
890.41	3877.00
890.84	3879.00
891.27	3858.00
891.70	3850.00
892.12	3880.00
892.55	3799.00
892.98	3807.00
893.41	3812.00
893.84	3789.00
894.27	3725.00
894.70	3661.00
895.13	3642.00
895.55	3645.00
895.98	3544.00
896.41	3569.00
896.84	3558.00
897.27	3564.00
897.70	3570.00
898.13	3550.00
898.55	3390.00
898.98	3399.00
899.41	3570.00
899.84	3502.00
900.27	3416.00
900.70	3438.00
901.12	3469.00
901.55	3474.00
901.98	3447.00
902.41	3506.00
902.84	3596.00
903.26	3647.00
903.69	3651.00
904.12	3657.00
904.55	3674.00
904.97	3663.00
905.40	3651.00
905.83	3582.00
906.26	3543.00
906.69	3488.00
907.11	3485.00
907.54	3467.00
907.97	3469.00
908.40	3439.00
908.82	3410.00
909.25	3458.00
909.68	3452.00
910.10	3434.00
910.53	3466.00
910.96	3517.00
911.39	3423.00
911.81	3529.00
912.24	3469.00
912.67	3368.00
913.09	3330.00
913.52	3417.00
913.95	3463.00
914.38	3492.00
914.80	3356.00
915.23	3300.00
915.66	3434.00
916.08	3475.00
916.51	3432.00
916.94	3315.00
917.36	3356.00
917.79	3430.00
918.22	3474.00
918.64	3481.00
919.07	3495.00
919.50	3519.00
919.92	3553.00
920.35	3520.00
920.78	3485.00
921.20	3429.00
921.63	3511.00
922.05	3471.00
922.48	3479.00
922.91	3437.00
923.33	3467.00
923.76	3382.00
924.18	3415.00
924.61	3438.00
925.04	3426.00
925.46	3434.00
925.89	3423.00
926.31	3413.00
926.74	3380.00
927.17	3298.00
927.59	3231.00
928.02	3188.00
928.44	3189.00
928.87	3143.00
929.29	3111.00
929.72	3069.00
930.15	3051.00
930.57	3000.00
931.00	2953.00
931.42	2910.00
931.85	2859.00
932.27	2866.00
932.70	2851.00
933.12	2781.00
933.55	2747.00
933.97	2784.00
934.40	2850.00
934.82	2813.00
935.25	2790.00
935.67	2820.00
936.10	2785.00
936.52	2748.00
936.95	2779.00
937.37	2751.00
937.80	2787.00
938.22	2868.00
938.65	2926.00
939.07	2926.00
939.50	2884.00
939.92	2852.00
940.35	2838.00
940.77	2845.00
941.19	2847.00
941.62	2840.00
942.04	2796.00
942.47	2776.00
942.89	2816.00
943.32	2765.00
943.74	2760.00
944.16	2812.00
944.59	2818.00
945.01	2778.00
945.44	2767.00
945.86	2817.00
946.29	2803.00
946.71	2837.00
947.13	2809.00
947.56	2807.00
947.98	2841.00
948.40	2868.00
948.83	2814.00
949.25	2771.00
949.68	2818.00
950.10	2927.00
950.52	2910.00
950.95	2859.00
951.37	2814.00
951.79	2808.00
952.22	2838.00
952.64	2898.00
953.06	2922.00
953.49	2864.00
953.91	2870.00
954.33	2889.00
954.76	2859.00
955.18	2897.00
955.60	2886.00
956.03	2878.00
956.45	2929.00
956.87	2960.00
957.30	2944.00
957.72	2945.00
958.14	2888.00
958.56	2890.00
958.99	2906.00
959.41	2970.00
959.83	2972.00
960.26	3000.00
960.68	3005.00
961.10	3003.00
961.52	2971.00
961.95	2992.00
962.37	3076.00
962.79	3007.00
963.21	3005.00
963.64	3034.00
964.06	3029.00
964.48	3061.00
964.90	3083.00
965.32	3026.00
965.75	3060.00
966.17	3055.00
966.59	3139.00
967.01	3147.00
967.44	3139.00
967.86	3190.00
968.28	3191.00
968.70	3215.00
969.12	3190.00
969.54	3230.00
969.97	3191.00
970.39	3216.00
970.81	3228.00
971.23	3154.00
971.65	3164.00
972.07	3170.00
972.50	3156.00
972.92	3126.00
973.34	3121.00
973.76	3146.00
974.18	3157.00
974.60	3123.00
975.02	3114.00
975.45	3118.00
975.87	3134.00
976.29	3184.00
976.71	3171.00
977.13	3154.00
977.55	3155.00
977.97	3158.00
978.39	3139.00
978.81	3162.00
979.24	3122.00
979.66	3191.00
980.08	3198.00
980.50	3189.00
980.92	3193.00
981.34	3189.00
981.76	3168.00
982.18	3191.00
982.60	3233.00
983.02	3212.00
983.44	3190.00
983.86	3199.00
984.28	3207.00
984.70	3213.00
985.12	3183.00
985.54	3212.00
985.96	3170.00
986.38	3196.00
986.80	3205.00
987.23	3204.00
987.65	3187.00
988.07	3198.00
988.49	3172.00
988.91	3196.00
989.33	3212.00
989.74	3199.00
990.16	3173.00
990.58	3170.00
991.00	3185.00
991.42	3156.00
991.84	3176.00
992.26	3186.00
992.68	3183.00
993.10	3202.00
993.52	3192.00
993.94	3160.00
994.36	3168.00
994.78	3182.00
995.20	3161.00
995.62	3161.00
996.04	3156.00
996.46	3179.00
996.88	3166.00
997.30	3175.00
997.71	3175.00
998.13	3183.00
998.55	3176.00
998.97	3169.00
999.39	3191.00
999.81	3202.00
1000.23	3198.00
1000.65	3163.00
1001.07	3210.00
1001.49	3201.00
1001.90	3186.00
1002.32	3192.00
1002.74	3170.00
1003.16	3154.00
1003.58	3166.00
1004.00	3150.00
1004.42	3150.00
1004.83	3153.00
1005.25	3162.00
1005.67	3164.00
1006.09	3140.00
1006.51	3130.00
1006.92	3136.00
1007.34	3124.00
1007.76	3136.00
1008.18	3132.00
1008.60	3121.00
1009.02	3129.00
1009.43	3138.00
1009.85	3136.00
1010.27	3146.00
1010.69	3127.00
1011.10	3093.00
1011.52	3125.00
1011.94	3128.00
1012.36	3098.00
1012.78	3102.00
1013.19	3108.00
1013.61	3091.00
1014.03	3107.00
1014.45	3096.00
1014.86	3089.00
1015.28	3074.00
1015.70	3072.00
1016.12	3059.00
1016.53	3060.00
1016.95	3067.00
1017.37	3057.00
1017.78	3065.00
1018.20	3056.00
1018.62	3030.00
1019.03	3053.00
1019.45	3031.00
1019.87	3009.00
1020.29	3038.00
1020.70	3016.00
1021.12	3034.00
1021.54	3046.00
1021.95	3016.00
1022.37	3028.00
1022.79	3019.00
1023.20	2989.00
1023.62	2988.00
1024.04	3015.00
1024.45	2998.00
1024.87	3007.00
1025.28	2960.00
1025.70	2976.00
1026.12	2978.00
1026.53	2985.00
1026.95	2965.00
1027.37	2982.00
1027.78	2960.00
1028.20	2957.00
1028.61	2955.00
1029.03	2953.00
1029.45	2940.00
1029.86	2920.00
1030.28	2943.00
1030.69	2930.00
1031.11	2943.00
1031.53	2918.00
1031.94	2914.00
1032.36	2914.00
1032.77	2907.00
1033.19	2922.00
1033.60	2911.00
1034.02	2909.00
1034.43	2915.00
1034.85	2899.00
1035.27	2920.00
1035.68	2891.00
1036.10	2868.00
1036.51	2888.00
1036.93	2909.00
1037.34	2885.00
1037.76	2871.00
1038.17	2879.00
1038.59	2860.00
1039.00	2881.00
1039.42	2863.00
1039.83	2875.00
1040.25	2852.00
1040.66	2849.00
1041.08	2857.00
1041.49	2848.00
1041.91	2849.00
1042.32	2849.00
1042.73	2836.00
1043.15	2843.00
1043.56	2819.00
1043.98	2826.00
1044.39	2830.00
1044.81	2846.00
1045.22	2827.00
1045.64	2824.00
1046.05	2813.00
1046.46	2807.00
1046.88	2805.00
1047.29	2811.00
1047.71	2800.00
1048.12	2798.00
1048.53	2791.00
1048.95	2785.00
1049.36	2791.00
1049.78	2800.00
1050.19	2799.00
1050.60	2766.00
1051.02	2768.00
1051.43	2784.00
1051.85	2771.00
1052.26	2761.00
1052.67	2774.00
1053.09	2778.00
1053.50	2768.00
1053.91	2764.00
1054.33	2767.00
1054.74	2741.00
1055.15	2754.00
1055.57	2742.00
1055.98	2742.00
1056.39	2744.00
1056.81	2736.00
1057.22	2744.00
1057.63	2747.00
1058.05	2742.00
1058.46	2730.00
1058.87	2726.00
1059.28	2729.00
1059.70	2726.00
1060.11	2726.00
1060.52	2730.00
1060.94	2724.00
1061.35	2727.00
1061.76	2711.00
1062.17	2729.00
1062.59	2709.00
1063.00	2706.00
1063.41	2693.00
1063.82	2718.00
1064.24	2702.00
1064.65	2712.00
1065.06	2702.00
1065.47	2689.00
1065.89	2711.00
1066.30	2706.00
1066.71	2706.00
1067.12	2696.00
1067.53	2699.00
1067.95	2703.00
1068.36	2685.00
1068.77	2688.00
1069.18	2673.00
1069.59	2681.00
1070.00	2685.00
1070.42	2680.00
1070.83	2665.00
1071.24	2669.00
1071.65	2679.00
1072.06	2676.00
1072.47	2686.00
1072.89	2668.00
1073.30	2670.00
1073.71	2678.00
1074.12	2673.00
1074.53	2669.00
1074.94	2661.00
1075.35	2656.00
1075.77	2656.00
1076.18	2653.00
1076.59	2667.00
1077.00	2662.00
1077.41	2658.00
1077.82	2659.00
1078.23	2653.00
1078.64	2651.00
1079.05	2656.00
1079.46	2667.00
1079.87	2650.00
1080.29	2639.00
1080.70	2645.00
1081.11	2643.00
1081.52	2643.00
1081.93	2642.00
1082.34	2650.00
1082.75	2626.00
1083.16	2630.00
1083.57	2640.00
1083.98	2638.00
1084.39	2645.00
1084.80	2636.00
1085.21	2630.00
1085.62	2637.00
1086.03	2659.00
1086.44	2628.00
1086.85	2634.00
1087.26	2634.00
1087.67	2625.00
1088.08	2618.00
1088.49	2632.00
1088.90	2629.00
1089.31	2622.00
1089.72	2620.00
1090.13	2625.00
1090.54	2624.00
1090.95	2609.00
1091.36	2628.00
1091.77	2618.00
1092.18	2617.00
1092.59	2615.00
1093.00	2621.00
1093.40	2606.00
1093.81	2610.00
1094.22	2617.00
1094.63	2611.00
1095.04	2607.00
1095.45	2600.00
1095.86	2609.00
1096.27	2607.00
1096.68	2607.00
1097.09	2610.00
1097.50	2602.00
1097.90	2600.00
1098.31	2599.00
1098.72	2605.00
1099.13	2597.00
1099.54	2602.00
1099.95	2601.00
1100.36	2591.00
1100.76	2594.00
1101.17	2594.00
1101.58	2602.00
1101.99	2589.00
1102.40	2596.00
1102.81	2596.00
1103.22	2594.00
1103.62	2593.00
1104.03	2592.00
1104.44	2593.00
1104.85	2591.00
1105.26	2592.00
1105.66	2583.00
1106.07	2586.00
1106.48	2591.00
1106.89	2588.00
1107.30	2588.00
1107.70	2584.00
1108.11	2583.00
1108.52	2588.00
1108.93	2588.00
1109.33	2591.00
1109.74	2582.00
1110.15	2583.00
1110.56	2584.00
1110.96	2583.00
1111.37	2583.00
1111.78	2587.00
1112.19	2581.00
1112.59	2578.00
1113.00	2584.00
1113.41	2576.00
1113.81	2580.00
1114.22	2573.00
1114.63	2559.00
1115.03	2558.00
1115.44	2561.00
1115.85	2562.00
>>>>>End Processed Spectral Data<<<<<
