SpectraSuite Data File
++++++++++++++++++++++++++++++++++++
Date: Thu Aug 05 10:45:32 EEST 2021
User: CanSEE
Dark Spectrum Present: No
Reference Spectrum Present: No
Number of Sampled Component Spectra: 1
Spectrometers: MAYP112785
Integration Time (usec): 10000 (MAYP112785)
Spectra Averaged: 1 (MAYP112785)
Boxcar Smoothing: 0 (MAYP112785)
Correct for Electrical Dark: No (MAYP112785)
Strobe/Lamp Enabled: No (MAYP112785)
Correct for Detector Non-linearity: No (MAYP112785)
Correct for Stray Light: No (MAYP112785)
Number of Pixels in Processed Spectrum: 2068
>>>>>Begin Processed Spectral Data<<<<<
198.35	3482.00
198.82	2491.00
199.30	2587.00
199.77	2573.00
200.24	2606.00
200.71	2606.00
201.18	2604.00
201.65	2613.00
202.13	2613.00
202.60	2614.00
203.07	2611.00
203.54	2605.00
204.01	2596.00
204.48	2606.00
204.96	2602.00
205.43	2593.00
205.90	2603.00
206.37	2608.00
206.84	2609.00
207.31	2600.00
207.78	2604.00
208.26	2612.00
208.73	2606.00
209.20	2615.00
209.67	2605.00
210.14	2616.00
210.61	2604.00
211.08	2610.00
211.56	2607.00
212.03	2611.00
212.50	2607.00
212.97	2601.00
213.44	2606.00
213.91	2615.00
214.38	2596.00
214.85	2603.00
215.33	2609.00
215.80	2605.00
216.27	2599.00
216.74	2596.00
217.21	2605.00
217.68	2612.00
218.15	2608.00
218.62	2613.00
219.09	2594.00
219.57	2608.00
220.04	2611.00
220.51	2610.00
220.98	2603.00
221.45	2605.00
221.92	2606.00
222.39	2602.00
222.86	2604.00
223.33	2610.00
223.80	2608.00
224.27	2608.00
224.74	2607.00
225.22	2603.00
225.69	2607.00
226.16	2600.00
226.63	2611.00
227.10	2608.00
227.57	2602.00
228.04	2602.00
228.51	2613.00
228.98	2608.00
229.45	2614.00
229.92	2600.00
230.39	2601.00
230.86	2604.00
231.33	2612.00
231.80	2606.00
232.27	2605.00
232.75	2602.00
233.22	2605.00
233.69	2604.00
234.16	2607.00
234.63	2609.00
235.10	2603.00
235.57	2604.00
236.04	2605.00
236.51	2606.00
236.98	2609.00
237.45	2605.00
237.92	2610.00
238.39	2604.00
238.86	2613.00
239.33	2662.00
239.80	2605.00
240.27	2605.00
240.74	2604.00
241.21	2608.00
241.68	2605.00
242.15	2607.00
242.62	2605.00
243.09	2612.00
243.56	2600.00
244.03	2607.00
244.50	2599.00
244.97	2603.00
245.44	2625.00
245.91	2604.00
246.38	2598.00
246.85	2605.00
247.32	2608.00
247.79	2611.00
248.26	2611.00
248.73	2607.00
249.20	2611.00
249.67	2611.00
250.14	2615.00
250.61	2610.00
251.08	2608.00
251.55	2607.00
252.02	2610.00
252.49	2606.00
252.96	2607.00
253.43	2607.00
253.90	2615.00
254.37	2602.00
254.84	2610.00
255.31	2607.00
255.77	2612.00
256.24	2598.00
256.71	2606.00
257.18	2604.00
257.65	2612.00
258.12	2609.00
258.59	2611.00
259.06	2616.00
259.53	2609.00
260.00	2611.00
260.47	2605.00
260.94	2609.00
261.41	2611.00
261.88	2613.00
262.35	2607.00
262.81	2608.00
263.28	2603.00
263.75	2604.00
264.22	2608.00
264.69	2608.00
265.16	2609.00
265.63	2620.00
266.10	2608.00
266.57	2605.00
267.04	2605.00
267.51	2609.00
267.97	2603.00
268.44	2606.00
268.91	2602.00
269.38	2611.00
269.85	2607.00
270.32	2602.00
270.79	2606.00
271.26	2609.00
271.73	2606.00
272.19	2607.00
272.66	2606.00
273.13	2605.00
273.60	2615.00
274.07	2607.00
274.54	2603.00
275.01	2611.00
275.48	2615.00
275.94	2610.00
276.41	2608.00
276.88	2612.00
277.35	2601.00
277.82	2602.00
278.29	2612.00
278.76	2610.00
279.22	2611.00
279.69	2606.00
280.16	2618.00
280.63	2612.00
281.10	2610.00
281.57	2616.00
282.04	2612.00
282.50	2602.00
282.97	2605.00
283.44	2605.00
283.91	2608.00
284.38	2615.00
284.85	2603.00
285.31	2602.00
285.78	2612.00
286.25	2604.00
286.72	2600.00
287.19	2609.00
287.65	2603.00
288.12	2613.00
288.59	2608.00
289.06	2614.00
289.53	2606.00
289.99	2612.00
290.46	2609.00
290.93	2607.00
291.40	2604.00
291.87	2601.00
292.33	2605.00
292.80	2600.00
293.27	2613.00
293.74	2608.00
294.21	2595.00
294.67	2603.00
295.14	2609.00
295.61	2607.00
296.08	2616.00
296.54	2601.00
297.01	2606.00
297.48	2601.00
297.95	2602.00
298.42	2609.00
298.88	2606.00
299.35	2603.00
299.82	2610.00
300.29	2612.00
300.75	2605.00
301.22	2607.00
301.69	2610.00
302.16	2608.00
302.62	2601.00
303.09	2608.00
303.56	2615.00
304.03	2611.00
304.49	2607.00
304.96	2612.00
305.43	2613.00
305.90	2616.00
306.36	2605.00
306.83	2618.00
307.30	2623.00
307.76	2622.00
308.23	2631.00
308.70	2629.00
309.17	2627.00
309.63	2616.00
310.10	2622.00
310.57	2628.00
311.03	2635.00
311.50	2639.00
311.97	2642.00
312.44	2656.00
312.90	2650.00
313.37	2659.00
313.84	2655.00
314.30	2668.00
314.77	2673.00
315.24	2671.00
315.70	2669.00
316.17	2670.00
316.64	2670.00
317.10	2684.00
317.57	2700.00
318.04	2703.00
318.50	2696.00
318.97	2697.00
319.44	2707.00
319.90	2711.00
320.37	2708.00
320.84	2726.00
321.30	2722.00
321.77	2726.00
322.24	2719.00
322.70	2735.00
323.17	2718.00
323.64	2721.00
324.10	2738.00
324.57	2749.00
325.04	2756.00
325.50	2771.00
325.97	2783.00
326.44	2802.00
326.90	2809.00
327.37	2808.00
327.84	2805.00
328.30	2793.00
328.77	2798.00
329.23	2821.00
329.70	2843.00
330.17	2846.00
330.63	2829.00
331.10	2823.00
331.56	2832.00
332.03	2843.00
332.50	2847.00
332.96	2835.00
333.43	2825.00
333.90	2828.00
334.36	2816.00
334.83	2844.00
335.29	2838.00
335.76	2855.00
336.22	2818.00
336.69	2813.00
337.16	2827.00
337.62	2838.00
338.09	2829.00
338.55	2850.00
339.02	2885.00
339.49	2866.00
339.95	2879.00
340.42	2883.00
340.88	2854.00
341.35	2877.00
341.81	2882.00
342.28	2893.00
342.75	2884.00
343.21	2894.00
343.68	2872.00
344.14	2873.00
344.61	2834.00
345.07	2866.00
345.54	2908.00
346.00	2917.00
346.47	2882.00
346.93	2919.00
347.40	2908.00
347.87	2915.00
348.33	2883.00
348.80	2911.00
349.26	2888.00
349.73	2926.00
350.19	2933.00
350.66	2978.00
351.12	2963.00
351.59	2934.00
352.05	2940.00
352.52	2932.00
352.98	2947.00
353.45	2958.00
353.91	2997.00
354.38	2975.00
354.84	3015.00
355.31	2991.00
355.77	2972.00
356.24	2960.00
356.70	2940.00
357.17	2910.00
357.63	2901.00
358.10	2927.00
358.56	2896.00
359.03	2893.00
359.49	2977.00
359.96	2979.00
360.42	2973.00
360.89	2978.00
361.35	2947.00
361.82	2969.00
362.28	2958.00
362.75	2995.00
363.21	3007.00
363.67	2996.00
364.14	2983.00
364.60	3043.00
365.07	2991.00
365.53	3048.00
366.00	3075.00
366.46	3101.00
366.93	3090.00
367.39	3051.00
367.86	3095.00
368.32	3075.00
368.78	3080.00
369.25	3091.00
369.71	3097.00
370.18	3128.00
370.64	3091.00
371.11	3082.00
371.57	3091.00
372.03	3106.00
372.50	3046.00
372.96	3066.00
373.43	3046.00
373.89	3018.00
374.35	3014.00
374.82	3042.00
375.28	3027.00
375.75	3098.00
376.21	3117.00
376.67	3119.00
377.14	3155.00
377.60	3170.00
378.07	3226.00
378.53	3211.00
378.99	3236.00
379.46	3145.00
379.92	3147.00
380.39	3168.00
380.85	3198.00
381.31	3156.00
381.78	3100.00
382.24	3061.00
382.70	3029.00
383.17	2998.00
383.63	3010.00
384.09	3054.00
384.56	3075.00
385.02	3144.00
385.48	3143.00
385.95	3167.00
386.41	3107.00
386.88	3146.00
387.34	3166.00
387.80	3185.00
388.27	3180.00
388.73	3207.00
389.19	3247.00
389.66	3299.00
390.12	3333.00
390.58	3340.00
391.05	3360.00
391.51	3328.00
391.97	3297.00
392.43	3218.00
392.90	3149.00
393.36	3076.00
393.82	3070.00
394.29	3193.00
394.75	3255.00
395.21	3330.00
395.68	3363.00
396.14	3315.00
396.60	3227.00
397.07	3197.00
397.53	3235.00
397.99	3441.00
398.45	3559.00
398.92	3631.00
399.38	3658.00
399.84	3694.00
400.31	3721.00
400.77	3746.00
401.23	3726.00
401.69	3791.00
402.16	3806.00
402.62	3808.00
403.08	3802.00
403.54	3761.00
404.01	3745.00
404.47	3777.00
404.93	3765.00
405.39	3757.00
405.86	3779.00
406.32	3775.00
406.78	3744.00
407.24	3795.00
407.71	3823.00
408.17	3810.00
408.63	3876.00
409.09	3895.00
409.56	3925.00
410.02	3872.00
410.48	3828.00
410.94	3883.00
411.40	3977.00
411.87	3970.00
412.33	4000.00
412.79	3988.00
413.25	3977.00
413.71	3904.00
414.18	3951.00
414.64	4009.00
415.10	3986.00
415.56	4021.00
416.02	3979.00
416.49	4058.00
416.95	4032.00
417.41	3985.00
417.87	3991.00
418.33	4010.00
418.80	3988.00
419.26	3992.00
419.72	4021.00
420.18	4019.00
420.64	4029.00
421.10	4106.00
421.57	4096.00
422.03	4099.00
422.49	4055.00
422.95	4020.00
423.41	4018.00
423.87	4048.00
424.34	4083.00
424.80	4104.00
425.26	4062.00
425.72	4072.00
426.18	4047.00
426.64	4050.00
427.10	4080.00
427.57	4012.00
428.03	4003.00
428.49	4017.00
428.95	3995.00
429.41	3910.00
429.87	3844.00
430.33	3832.00
430.79	3836.00
431.26	3906.00
431.72	4031.00
432.18	4174.00
432.64	4207.00
433.10	4138.00
433.56	4228.00
434.02	4181.00
434.48	4131.00
434.94	4225.00
435.40	4235.00
435.87	4328.00
436.33	4339.00
436.79	4431.00
437.25	4292.00
437.71	4274.00
438.17	4305.00
438.63	4257.00
439.09	4259.00
439.55	4302.00
440.01	4396.00
440.47	4410.00
440.93	4415.00
441.39	4448.00
441.85	4556.00
442.32	4532.00
442.78	4608.00
443.24	4607.00
443.70	4578.00
444.16	4556.00
444.62	4607.00
445.08	4593.00
445.54	4577.00
446.00	4535.00
446.46	4542.00
446.92	4619.00
447.38	4704.00
447.84	4725.00
448.30	4733.00
448.76	4739.00
449.22	4779.00
449.68	4781.00
450.14	4835.00
450.60	4885.00
451.06	4895.00
451.52	4863.00
451.98	4816.00
452.44	4760.00
452.90	4751.00
453.36	4729.00
453.82	4799.00
454.28	4836.00
454.74	4861.00
455.20	4848.00
455.66	4835.00
456.12	4874.00
456.58	4917.00
457.04	4918.00
457.50	4923.00
457.96	4933.00
458.42	4911.00
458.88	4839.00
459.34	4910.00
459.80	4947.00
460.26	4975.00
460.72	4984.00
461.18	5007.00
461.64	5019.00
462.10	5078.00
462.55	5011.00
463.01	5008.00
463.47	4995.00
463.93	5019.00
464.39	4977.00
464.85	4962.00
465.31	4951.00
465.77	4989.00
466.23	5012.00
466.69	5013.00
467.15	4900.00
467.61	4969.00
468.07	5024.00
468.52	5004.00
468.98	5055.00
469.44	5010.00
469.90	5036.00
470.36	4987.00
470.82	5049.00
471.28	5088.00
471.74	5121.00
472.20	5096.00
472.66	5146.00
473.11	5123.00
473.57	5105.00
474.03	5108.00
474.49	5136.00
474.95	5155.00
475.41	5119.00
475.87	5138.00
476.33	5171.00
476.78	5191.00
477.24	5127.00
477.70	5222.00
478.16	5203.00
478.62	5245.00
479.08	5258.00
479.54	5211.00
479.99	5305.00
480.45	5280.00
480.91	5257.00
481.37	5216.00
481.83	5288.00
482.29	5304.00
482.74	5251.00
483.20	5268.00
483.66	5184.00
484.12	5270.00
484.58	5155.00
485.04	5103.00
485.49	5040.00
485.95	4966.00
486.41	4862.00
486.87	4899.00
487.33	5100.00
487.78	5100.00
488.24	5167.00
488.70	5208.00
489.16	5244.00
489.62	5178.00
490.07	5355.00
490.53	5323.00
490.99	5280.00
491.45	5247.00
491.90	5221.00
492.36	5218.00
492.82	5218.00
493.28	5346.00
493.74	5347.00
494.19	5376.00
494.65	5332.00
495.11	5386.00
495.57	5374.00
496.02	5366.00
496.48	5348.00
496.94	5399.00
497.40	5385.00
497.85	5389.00
498.31	5306.00
498.77	5299.00
499.23	5301.00
499.68	5310.00
500.14	5347.00
500.60	5225.00
501.06	5189.00
501.51	5259.00
501.97	5310.00
502.43	5265.00
502.88	5336.00
503.34	5314.00
503.80	5360.00
504.26	5300.00
504.71	5315.00
505.17	5351.00
505.63	5451.00
506.08	5435.00
506.54	5436.00
507.00	5417.00
507.45	5375.00
507.91	5381.00
508.37	5439.00
508.82	5405.00
509.28	5463.00
509.74	5419.00
510.19	5449.00
510.65	5455.00
511.11	5459.00
511.56	5448.00
512.02	5520.00
512.48	5502.00
512.93	5425.00
513.39	5402.00
513.85	5419.00
514.30	5389.00
514.76	5389.00
515.22	5387.00
515.67	5388.00
516.13	5299.00
516.59	5196.00
517.04	5164.00
517.50	5127.00
517.95	5158.00
518.41	5269.00
518.87	5310.00
519.32	5323.00
519.78	5408.00
520.24	5435.00
520.69	5487.00
521.15	5508.00
521.60	5474.00
522.06	5496.00
522.52	5511.00
522.97	5473.00
523.43	5520.00
523.88	5579.00
524.34	5616.00
524.80	5585.00
525.25	5622.00
525.71	5496.00
526.16	5392.00
526.62	5391.00
527.07	5427.00
527.53	5456.00
527.99	5522.00
528.44	5671.00
528.90	5668.00
529.35	5635.00
529.81	5708.00
530.26	5758.00
530.72	5726.00
531.17	5762.00
531.63	5749.00
532.09	5599.00
532.54	5631.00
533.00	5615.00
533.45	5604.00
533.91	5640.00
534.36	5635.00
534.82	5728.00
535.27	5760.00
535.73	5776.00
536.18	5765.00
536.64	5686.00
537.09	5637.00
537.55	5667.00
538.00	5669.00
538.46	5642.00
538.91	5730.00
539.37	5643.00
539.82	5632.00
540.28	5624.00
540.73	5656.00
541.19	5614.00
541.64	5623.00
542.10	5630.00
542.55	5740.00
543.01	5719.00
543.46	5725.00
543.92	5695.00
544.37	5761.00
544.83	5770.00
545.28	5664.00
545.74	5748.00
546.19	5756.00
546.64	5797.00
547.10	5745.00
547.55	5750.00
548.01	5769.00
548.46	5689.00
548.92	5799.00
549.37	5774.00
549.83	5795.00
550.28	5748.00
550.73	5733.00
551.19	5754.00
551.64	5780.00
552.10	5767.00
552.55	5771.00
553.00	5794.00
553.46	5792.00
553.91	5804.00
554.37	5851.00
554.82	5848.00
555.28	5873.00
555.73	5871.00
556.18	5865.00
556.64	5769.00
557.09	5762.00
557.54	5699.00
558.00	5765.00
558.45	5650.00
558.91	5776.00
559.36	5705.00
559.81	5651.00
560.27	5765.00
560.72	5820.00
561.17	5802.00
561.63	5805.00
562.08	5750.00
562.54	5790.00
562.99	5803.00
563.44	5766.00
563.90	5804.00
564.35	5838.00
564.80	5783.00
565.26	5722.00
565.71	5786.00
566.16	5723.00
566.62	5692.00
567.07	5740.00
567.52	5765.00
567.98	5766.00
568.43	5703.00
568.88	5739.00
569.34	5689.00
569.79	5743.00
570.24	5733.00
570.69	5677.00
571.15	5657.00
571.60	5690.00
572.05	5807.00
572.51	5777.00
572.96	5741.00
573.41	5823.00
573.86	5838.00
574.32	5829.00
574.77	5815.00
575.22	5768.00
575.68	5705.00
576.13	5707.00
576.58	5773.00
577.03	5804.00
577.49	5771.00
577.94	5729.00
578.39	5801.00
578.84	5687.00
579.30	5796.00
579.75	5789.00
580.20	5848.00
580.65	5855.00
581.11	5883.00
581.56	5907.00
582.01	5913.00
582.46	5883.00
582.92	5939.00
583.37	5936.00
583.82	5928.00
584.27	5952.00
584.72	5901.00
585.18	5938.00
585.63	5841.00
586.08	5895.00
586.53	5898.00
586.98	5869.00
587.44	5890.00
587.89	5887.00
588.34	5762.00
588.79	5625.00
589.24	5586.00
589.70	5530.00
590.15	5598.00
590.60	5655.00
591.05	5744.00
591.50	5779.00
591.96	5755.00
592.41	5745.00
592.86	5770.00
593.31	5871.00
593.76	5828.00
594.21	5751.00
594.66	5740.00
595.12	5770.00
595.57	5710.00
596.02	5905.00
596.47	5847.00
596.92	5832.00
597.37	5798.00
597.82	5852.00
598.28	5792.00
598.73	5771.00
599.18	5802.00
599.63	5815.00
600.08	5864.00
600.53	5868.00
600.98	5768.00
601.43	5775.00
601.88	5766.00
602.34	5817.00
602.79	5829.00
603.24	5823.00
603.69	5878.00
604.14	5940.00
604.59	5919.00
605.04	5885.00
605.49	5918.00
605.94	5927.00
606.39	5837.00
606.84	5939.00
607.30	5851.00
607.75	5933.00
608.20	5890.00
608.65	5786.00
609.10	5884.00
609.55	5872.00
610.00	5815.00
610.45	5895.00
610.90	5840.00
611.35	5926.00
611.80	5906.00
612.25	5904.00
612.70	5875.00
613.15	5875.00
613.60	5807.00
614.05	5858.00
614.50	5842.00
614.95	5850.00
615.40	5841.00
615.85	5843.00
616.30	5694.00
616.75	5737.00
617.20	5791.00
617.65	5841.00
618.10	5887.00
618.55	5917.00
619.00	5905.00
619.45	5914.00
619.90	5844.00
620.35	5909.00
620.80	5915.00
621.25	5914.00
621.70	5903.00
622.15	5874.00
622.60	5913.00
623.05	5869.00
623.50	5825.00
623.95	5788.00
624.40	5820.00
624.85	5843.00
625.30	5771.00
625.75	5713.00
626.20	5781.00
626.65	5911.00
627.10	5867.00
627.55	5785.00
627.99	5643.00
628.44	5732.00
628.89	5783.00
629.34	5806.00
629.79	5783.00
630.24	5759.00
630.69	5808.00
631.14	5733.00
631.59	5755.00
632.04	5802.00
632.49	5822.00
632.94	5845.00
633.38	5898.00
633.83	5840.00
634.28	5827.00
634.73	5926.00
635.18	5875.00
635.63	5881.00
636.08	5864.00
636.53	5912.00
636.97	5885.00
637.42	5942.00
637.87	5904.00
638.32	5984.00
638.77	6015.00
639.22	6027.00
639.67	5895.00
640.11	5930.00
640.56	5898.00
641.01	5829.00
641.46	5879.00
641.91	5958.00
642.36	5954.00
642.81	5942.00
643.25	5882.00
643.70	5891.00
644.15	5927.00
644.60	5888.00
645.05	5847.00
645.49	5858.00
645.94	5898.00
646.39	5866.00
646.84	5867.00
647.29	5822.00
647.73	5807.00
648.18	5833.00
648.63	5803.00
649.08	5830.00
649.53	5707.00
649.97	5758.00
650.42	5803.00
650.87	5919.00
651.32	5879.00
651.77	5809.00
652.21	5778.00
652.66	5856.00
653.11	5901.00
653.56	5914.00
654.00	5884.00
654.45	5806.00
654.90	5784.00
655.35	5733.00
655.79	5571.00
656.24	5334.00
656.69	5327.00
657.14	5463.00
657.58	5674.00
658.03	5786.00
658.48	5832.00
658.92	5857.00
659.37	5822.00
659.82	5837.00
660.27	5869.00
660.71	5893.00
661.16	5913.00
661.61	5888.00
662.05	5964.00
662.50	5928.00
662.95	5896.00
663.39	5947.00
663.84	5868.00
664.29	5942.00
664.74	5888.00
665.18	5924.00
665.63	5940.00
666.08	5900.00
666.52	5954.00
666.97	5846.00
667.42	5869.00
667.86	5890.00
668.31	5900.00
668.76	5881.00
669.20	5871.00
669.65	5846.00
670.09	5945.00
670.54	5923.00
670.99	5848.00
671.43	5825.00
671.88	5806.00
672.33	5783.00
672.77	5918.00
673.22	5899.00
673.66	5898.00
674.11	5875.00
674.56	5875.00
675.00	5867.00
675.45	5913.00
675.90	5806.00
676.34	5877.00
676.79	5849.00
677.23	5797.00
677.68	5765.00
678.12	5842.00
678.57	5824.00
679.02	5849.00
679.46	5891.00
679.91	5830.00
680.35	5822.00
680.80	5816.00
681.25	5835.00
681.69	5803.00
682.14	5807.00
682.58	5833.00
683.03	5782.00
683.47	5724.00
683.92	5728.00
684.36	5741.00
684.81	5734.00
685.25	5775.00
685.70	5773.00
686.15	5688.00
686.59	5427.00
687.04	5053.00
687.48	4809.00
687.93	4957.00
688.37	5179.00
688.82	5264.00
689.26	5190.00
689.71	5190.00
690.15	5244.00
690.60	5332.00
691.04	5413.00
691.49	5402.00
691.93	5521.00
692.38	5597.00
692.82	5555.00
693.27	5534.00
693.71	5407.00
694.16	5452.00
694.60	5388.00
695.04	5467.00
695.49	5477.00
695.93	5488.00
696.38	5484.00
696.82	5557.00
697.27	5694.00
697.71	5574.00
698.16	5574.00
698.60	5538.00
699.04	5563.00
699.49	5493.00
699.93	5495.00
700.38	5445.00
700.82	5551.00
701.27	5487.00
701.71	5453.00
702.15	5478.00
702.60	5376.00
703.04	5485.00
703.49	5504.00
703.93	5507.00
704.37	5524.00
704.82	5615.00
705.26	5621.00
705.71	5558.00
706.15	5560.00
706.59	5565.00
707.04	5544.00
707.48	5542.00
707.93	5530.00
708.37	5507.00
708.81	5533.00
709.26	5551.00
709.70	5533.00
710.14	5574.00
710.59	5572.00
711.03	5535.00
711.47	5545.00
711.92	5549.00
712.36	5471.00
712.80	5558.00
713.25	5470.00
713.69	5517.00
714.13	5514.00
714.58	5544.00
715.02	5442.00
715.46	5351.00
715.91	5425.00
716.35	5329.00
716.79	5141.00
717.24	4991.00
717.68	4924.00
718.12	4775.00
718.57	4736.00
719.01	4703.00
719.45	4698.00
719.89	4717.00
720.34	4711.00
720.78	4786.00
721.22	4906.00
721.66	5168.00
722.11	5211.00
722.55	5185.00
722.99	5132.00
723.44	5007.00
723.88	4837.00
724.32	4894.00
724.76	4812.00
725.21	4807.00
725.65	4877.00
726.09	4903.00
726.53	4895.00
726.97	4939.00
727.42	4962.00
727.86	4801.00
728.30	4908.00
728.74	4963.00
729.19	4849.00
729.63	4875.00
730.07	4913.00
730.51	4928.00
730.95	4881.00
731.40	4942.00
731.84	4990.00
732.28	5133.00
732.72	5122.00
733.16	5103.00
733.61	5186.00
734.05	5233.00
734.49	5318.00
734.93	5165.00
735.37	5213.00
735.81	5183.00
736.26	5182.00
736.70	5185.00
737.14	5221.00
737.58	5228.00
738.02	5249.00
738.46	5218.00
738.90	5162.00
739.35	5185.00
739.79	5231.00
740.23	5261.00
740.67	5259.00
741.11	5211.00
741.55	5254.00
741.99	5205.00
742.44	5226.00
742.88	5213.00
743.32	5211.00
743.76	5260.00
744.20	5281.00
744.64	5210.00
745.08	5220.00
745.52	5229.00
745.96	5316.00
746.40	5310.00
746.84	5339.00
747.29	5301.00
747.73	5314.00
748.17	5311.00
748.61	5314.00
749.05	5277.00
749.49	5281.00
749.93	5267.00
750.37	5295.00
750.81	5208.00
751.25	5215.00
751.69	5280.00
752.13	5246.00
752.57	5298.00
753.01	5271.00
753.45	5248.00
753.89	5338.00
754.33	5265.00
754.77	5262.00
755.21	5290.00
755.65	5276.00
756.09	5272.00
756.53	5295.00
756.97	5237.00
757.41	5285.00
757.85	5220.00
758.29	5185.00
758.73	5162.00
759.17	4978.00
759.61	4364.00
760.05	3622.00
760.49	3187.00
760.93	3073.00
761.37	3248.00
761.81	3700.00
762.25	3962.00
762.69	3747.00
763.13	3601.00
763.57	3657.00
764.01	3712.00
764.45	3849.00
764.89	4027.00
765.33	4177.00
765.77	4330.00
766.21	4485.00
766.65	4661.00
767.09	4806.00
767.53	4892.00
767.96	4956.00
768.40	5026.00
768.84	5014.00
769.28	5083.00
769.72	5109.00
770.16	5111.00
770.60	5189.00
771.04	5130.00
771.48	5114.00
771.92	5174.00
772.35	5167.00
772.79	5198.00
773.23	5152.00
773.67	5128.00
774.11	5149.00
774.55	5054.00
774.99	5025.00
775.43	5040.00
775.86	5117.00
776.30	5121.00
776.74	5109.00
777.18	5086.00
777.62	5122.00
778.06	5101.00
778.50	5115.00
778.93	5107.00
779.37	5049.00
779.81	5042.00
780.25	4982.00
780.69	5030.00
781.12	5025.00
781.56	5069.00
782.00	5104.00
782.44	5101.00
782.88	5088.00
783.32	5054.00
783.75	5005.00
784.19	5052.00
784.63	5050.00
785.07	5099.00
785.50	4969.00
785.94	5028.00
786.38	4969.00
786.82	4955.00
787.26	4872.00
787.69	4893.00
788.13	4971.00
788.57	4973.00
789.01	4935.00
789.44	4924.00
789.88	4883.00
790.32	4836.00
790.76	4862.00
791.19	4833.00
791.63	4792.00
792.07	4837.00
792.51	4809.00
792.94	4809.00
793.38	4785.00
793.82	4801.00
794.25	4805.00
794.69	4833.00
795.13	4822.00
795.56	4834.00
796.00	4819.00
796.44	4748.00
796.88	4743.00
797.31	4834.00
797.75	4784.00
798.19	4743.00
798.62	4713.00
799.06	4783.00
799.50	4801.00
799.93	4741.00
800.37	4752.00
800.81	4806.00
801.24	4717.00
801.68	4747.00
802.12	4800.00
802.55	4731.00
802.99	4667.00
803.43	4699.00
803.86	4705.00
804.30	4726.00
804.73	4675.00
805.17	4721.00
805.61	4759.00
806.04	4705.00
806.48	4754.00
806.92	4768.00
807.35	4713.00
807.79	4674.00
808.22	4654.00
808.66	4649.00
809.10	4633.00
809.53	4581.00
809.97	4579.00
810.40	4568.00
810.84	4548.00
811.27	4527.00
811.71	4547.00
812.15	4559.00
812.58	4517.00
813.02	4492.00
813.45	4363.00
813.89	4345.00
814.32	4285.00
814.76	4254.00
815.19	4153.00
815.63	4198.00
816.07	4137.00
816.50	4066.00
816.94	4118.00
817.37	4171.00
817.81	4137.00
818.24	4108.00
818.68	4170.00
819.11	4202.00
819.55	4164.00
819.98	4147.00
820.42	4332.00
820.85	4404.00
821.29	4353.00
821.72	4291.00
822.16	4257.00
822.59	4058.00
823.03	3863.00
823.46	4022.00
823.90	4153.00
824.33	4281.00
824.77	4356.00
825.20	4369.00
825.63	4319.00
826.07	4308.00
826.50	4356.00
826.94	4364.00
827.37	4239.00
827.81	4145.00
828.24	4176.00
828.68	4189.00
829.11	4175.00
829.54	4209.00
829.98	4277.00
830.41	4223.00
830.85	4269.00
831.28	4279.00
831.71	4272.00
832.15	4230.00
832.58	4286.00
833.02	4293.00
833.45	4265.00
833.88	4232.00
834.32	4259.00
834.75	4321.00
835.19	4295.00
835.62	4298.00
836.05	4271.00
836.49	4328.00
836.92	4351.00
837.35	4355.00
837.79	4384.00
838.22	4439.00
838.66	4379.00
839.09	4405.00
839.52	4419.00
839.96	4442.00
840.39	4365.00
840.82	4367.00
841.26	4420.00
841.69	4382.00
842.12	4367.00
842.56	4439.00
842.99	4375.00
843.42	4389.00
843.85	4362.00
844.29	4350.00
844.72	4361.00
845.15	4434.00
845.59	4458.00
846.02	4436.00
846.45	4409.00
846.88	4363.00
847.32	4380.00
847.75	4347.00
848.18	4351.00
848.62	4347.00
849.05	4361.00
849.48	4248.00
849.91	4128.00
850.35	4279.00
850.78	4315.00
851.21	4317.00
851.64	4361.00
852.08	4312.00
852.51	4391.00
852.94	4291.00
853.37	4298.00
853.80	4121.00
854.24	4019.00
854.67	4066.00
855.10	4158.00
855.53	4263.00
855.97	4267.00
856.40	4320.00
856.83	4346.00
857.26	4315.00
857.69	4311.00
858.13	4331.00
858.56	4365.00
858.99	4366.00
859.42	4391.00
859.85	4341.00
860.28	4363.00
860.72	4347.00
861.15	4338.00
861.58	4328.00
862.01	4357.00
862.44	4307.00
862.87	4302.00
863.30	4275.00
863.74	4323.00
864.17	4293.00
864.60	4267.00
865.03	4253.00
865.46	4240.00
865.89	4113.00
866.32	3992.00
866.75	4176.00
867.19	4259.00
867.62	4280.00
868.05	4268.00
868.48	4282.00
868.91	4260.00
869.34	4290.00
869.77	4254.00
870.20	4248.00
870.63	4252.00
871.06	4241.00
871.49	4231.00
871.93	4232.00
872.36	4285.00
872.79	4235.00
873.22	4212.00
873.65	4241.00
874.08	4229.00
874.51	4230.00
874.94	4274.00
875.37	4239.00
875.80	4259.00
876.23	4241.00
876.66	4193.00
877.09	4192.00
877.52	4173.00
877.95	4171.00
878.38	4206.00
878.81	4196.00
879.24	4181.00
879.67	4178.00
880.10	4209.00
880.53	4111.00
880.96	4172.00
881.39	4191.00
881.82	4220.00
882.25	4215.00
882.68	4226.00
883.11	4263.00
883.54	4174.00
883.97	4241.00
884.40	4187.00
884.83	4194.00
885.26	4194.00
885.69	4157.00
886.12	4111.00
886.55	4146.00
886.98	4146.00
887.40	4177.00
887.83	4161.00
888.26	4183.00
888.69	4174.00
889.12	4198.00
889.55	4185.00
889.98	4193.00
890.41	4164.00
890.84	4191.00
891.27	4147.00
891.70	4135.00
892.12	4178.00
892.55	4112.00
892.98	4029.00
893.41	4102.00
893.84	4070.00
894.27	3949.00
894.70	3915.00
895.13	3903.00
895.55	3888.00
895.98	3866.00
896.41	3776.00
896.84	3825.00
897.27	3799.00
897.70	3823.00
898.13	3808.00
898.55	3594.00
898.98	3611.00
899.41	3799.00
899.84	3717.00
900.27	3696.00
900.70	3693.00
901.12	3700.00
901.55	3663.00
901.98	3692.00
902.41	3741.00
902.84	3788.00
903.26	3899.00
903.69	3887.00
904.12	3891.00
904.55	3906.00
904.97	3919.00
905.40	3895.00
905.83	3805.00
906.26	3789.00
906.69	3697.00
907.11	3685.00
907.54	3673.00
907.97	3686.00
908.40	3671.00
908.82	3695.00
909.25	3681.00
909.68	3646.00
910.10	3612.00
910.53	3653.00
910.96	3700.00
911.39	3677.00
911.81	3687.00
912.24	3717.00
912.67	3585.00
913.09	3487.00
913.52	3589.00
913.95	3713.00
914.38	3714.00
914.80	3567.00
915.23	3487.00
915.66	3636.00
916.08	3700.00
916.51	3689.00
916.94	3571.00
917.36	3545.00
917.79	3626.00
918.22	3656.00
918.64	3696.00
919.07	3706.00
919.50	3748.00
919.92	3795.00
920.35	3726.00
920.78	3728.00
921.20	3651.00
921.63	3734.00
922.05	3720.00
922.48	3659.00
922.91	3662.00
923.33	3653.00
923.76	3649.00
924.18	3642.00
924.61	3654.00
925.04	3629.00
925.46	3607.00
925.89	3613.00
926.31	3613.00
926.74	3574.00
927.17	3502.00
927.59	3408.00
928.02	3363.00
928.44	3341.00
928.87	3294.00
929.29	3236.00
929.72	3205.00
930.15	3183.00
930.57	3142.00
931.00	3057.00
931.42	3011.00
931.85	2967.00
932.27	2965.00
932.70	2951.00
933.12	2880.00
933.55	2842.00
933.97	2848.00
934.40	2963.00
934.82	2926.00
935.25	2877.00
935.67	2918.00
936.10	2865.00
936.52	2833.00
936.95	2856.00
937.37	2819.00
937.80	2853.00
938.22	2948.00
938.65	3032.00
939.07	3044.00
939.50	2983.00
939.92	2953.00
940.35	2943.00
940.77	2920.00
941.19	2914.00
941.62	2945.00
942.04	2878.00
942.47	2861.00
942.89	2905.00
943.32	2850.00
943.74	2822.00
944.16	2884.00
944.59	2895.00
945.01	2868.00
945.44	2834.00
945.86	2859.00
946.29	2895.00
946.71	2902.00
947.13	2900.00
947.56	2892.00
947.98	2931.00
948.40	2978.00
948.83	2899.00
949.25	2840.00
949.68	2902.00
950.10	3019.00
950.52	3045.00
950.95	2974.00
951.37	2907.00
951.79	2889.00
952.22	2948.00
952.64	3005.00
953.06	3035.00
953.49	2995.00
953.91	2987.00
954.33	2964.00
954.76	2947.00
955.18	2978.00
955.60	2980.00
956.03	2970.00
956.45	3034.00
956.87	3110.00
957.30	3061.00
957.72	3058.00
958.14	2995.00
958.56	2987.00
958.99	3017.00
959.41	3102.00
959.83	3087.00
960.26	3116.00
960.68	3117.00
961.10	3143.00
961.52	3073.00
961.95	3100.00
962.37	3199.00
962.79	3141.00
963.21	3118.00
963.64	3149.00
964.06	3179.00
964.48	3192.00
964.90	3207.00
965.32	3174.00
965.75	3159.00
966.17	3231.00
966.59	3305.00
967.01	3322.00
967.44	3291.00
967.86	3333.00
968.28	3342.00
968.70	3331.00
969.12	3364.00
969.54	3373.00
969.97	3369.00
970.39	3400.00
970.81	3351.00
971.23	3332.00
971.65	3310.00
972.07	3315.00
972.50	3285.00
972.92	3251.00
973.34	3284.00
973.76	3280.00
974.18	3288.00
974.60	3294.00
975.02	3234.00
975.45	3251.00
975.87	3287.00
976.29	3302.00
976.71	3326.00
977.13	3329.00
977.55	3323.00
977.97	3308.00
978.39	3308.00
978.81	3307.00
979.24	3294.00
979.66	3325.00
980.08	3362.00
980.50	3364.00
980.92	3353.00
981.34	3342.00
981.76	3359.00
982.18	3313.00
982.60	3378.00
983.02	3378.00
983.44	3343.00
983.86	3325.00
984.28	3371.00
984.70	3346.00
985.12	3361.00
985.54	3371.00
985.96	3347.00
986.38	3359.00
986.80	3339.00
987.23	3373.00
987.65	3350.00
988.07	3358.00
988.49	3340.00
988.91	3358.00
989.33	3379.00
989.74	3365.00
990.16	3355.00
990.58	3317.00
991.00	3356.00
991.42	3327.00
991.84	3339.00
992.26	3345.00
992.68	3330.00
993.10	3327.00
993.52	3318.00
993.94	3347.00
994.36	3274.00
994.78	3322.00
995.20	3312.00
995.62	3308.00
996.04	3303.00
996.46	3301.00
996.88	3326.00
997.30	3319.00
997.71	3343.00
998.13	3338.00
998.55	3342.00
998.97	3320.00
999.39	3344.00
999.81	3341.00
1000.23	3336.00
1000.65	3331.00
1001.07	3332.00
1001.49	3323.00
1001.90	3312.00
1002.32	3332.00
1002.74	3297.00
1003.16	3311.00
1003.58	3271.00
1004.00	3309.00
1004.42	3281.00
1004.83	3305.00
1005.25	3305.00
1005.67	3320.00
1006.09	3268.00
1006.51	3320.00
1006.92	3311.00
1007.34	3249.00
1007.76	3266.00
1008.18	3245.00
1008.60	3254.00
1009.02	3291.00
1009.43	3283.00
1009.85	3270.00
1010.27	3247.00
1010.69	3271.00
1011.10	3249.00
1011.52	3260.00
1011.94	3265.00
1012.36	3243.00
1012.78	3247.00
1013.19	3198.00
1013.61	3231.00
1014.03	3227.00
1014.45	3236.00
1014.86	3236.00
1015.28	3221.00
1015.70	3193.00
1016.12	3225.00
1016.53	3232.00
1016.95	3167.00
1017.37	3185.00
1017.78	3158.00
1018.20	3158.00
1018.62	3179.00
1019.03	3159.00
1019.45	3172.00
1019.87	3157.00
1020.29	3163.00
1020.70	3151.00
1021.12	3167.00
1021.54	3101.00
1021.95	3144.00
1022.37	3133.00
1022.79	3155.00
1023.20	3114.00
1023.62	3135.00
1024.04	3122.00
1024.45	3117.00
1024.87	3117.00
1025.28	3090.00
1025.70	3095.00
1026.12	3118.00
1026.53	3060.00
1026.95	3070.00
1027.37	3077.00
1027.78	3047.00
1028.20	3065.00
1028.61	3053.00
1029.03	3034.00
1029.45	3057.00
1029.86	3030.00
1030.28	3045.00
1030.69	3036.00
1031.11	3028.00
1031.53	3027.00
1031.94	3022.00
1032.36	3036.00
1032.77	3037.00
1033.19	3022.00
1033.60	3016.00
1034.02	2995.00
1034.43	3005.00
1034.85	3002.00
1035.27	2999.00
1035.68	2974.00
1036.10	2984.00
1036.51	2998.00
1036.93	2972.00
1037.34	2973.00
1037.76	2964.00
1038.17	2984.00
1038.59	2940.00
1039.00	2962.00
1039.42	2948.00
1039.83	2958.00
1040.25	2938.00
1040.66	2965.00
1041.08	2933.00
1041.49	2940.00
1041.91	2920.00
1042.32	2909.00
1042.73	2937.00
1043.15	2920.00
1043.56	2901.00
1043.98	2890.00
1044.39	2917.00
1044.81	2914.00
1045.22	2881.00
1045.64	2892.00
1046.05	2892.00
1046.46	2894.00
1046.88	2888.00
1047.29	2875.00
1047.71	2879.00
1048.12	2889.00
1048.53	2870.00
1048.95	2866.00
1049.36	2856.00
1049.78	2873.00
1050.19	2859.00
1050.60	2868.00
1051.02	2873.00
1051.43	2849.00
1051.85	2858.00
1052.26	2853.00
1052.67	2847.00
1053.09	2844.00
1053.50	2820.00
1053.91	2826.00
1054.33	2820.00
1054.74	2819.00
1055.15	2821.00
1055.57	2802.00
1055.98	2800.00
1056.39	2808.00
1056.81	2813.00
1057.22	2795.00
1057.63	2794.00
1058.05	2783.00
1058.46	2790.00
1058.87	2824.00
1059.28	2783.00
1059.70	2785.00
1060.11	2775.00
1060.52	2780.00
1060.94	2783.00
1061.35	2767.00
1061.76	2775.00
1062.17	2767.00
1062.59	2772.00
1063.00	2750.00
1063.41	2768.00
1063.82	2765.00
1064.24	2761.00
1064.65	2763.00
1065.06	2753.00
1065.47	2756.00
1065.89	2759.00
1066.30	2759.00
1066.71	2758.00
1067.12	2758.00
1067.53	2740.00
1067.95	2751.00
1068.36	2740.00
1068.77	2746.00
1069.18	2732.00
1069.59	2719.00
1070.00	2727.00
1070.42	2722.00
1070.83	2722.00
1071.24	2719.00
1071.65	2721.00
1072.06	2714.00
1072.47	2718.00
1072.89	2725.00
1073.30	2719.00
1073.71	2721.00
1074.12	2723.00
1074.53	2714.00
1074.94	2709.00
1075.35	2701.00
1075.77	2697.00
1076.18	2712.00
1076.59	2689.00
1077.00	2695.00
1077.41	2705.00
1077.82	2694.00
1078.23	2700.00
1078.64	2701.00
1079.05	2695.00
1079.46	2701.00
1079.87	2698.00
1080.29	2692.00
1080.70	2686.00
1081.11	2684.00
1081.52	2681.00
1081.93	2685.00
1082.34	2680.00
1082.75	2686.00
1083.16	2676.00
1083.57	2676.00
1083.98	2683.00
1084.39	2676.00
1084.80	2678.00
1085.21	2668.00
1085.62	2680.00
1086.03	2694.00
1086.44	2671.00
1086.85	2672.00
1087.26	2672.00
1087.67	2670.00
1088.08	2673.00
1088.49	2659.00
1088.90	2656.00
1089.31	2663.00
1089.72	2658.00
1090.13	2663.00
1090.54	2654.00
1090.95	2657.00
1091.36	2657.00
1091.77	2655.00
1092.18	2654.00
1092.59	2642.00
1093.00	2650.00
1093.40	2649.00
1093.81	2644.00
1094.22	2644.00
1094.63	2644.00
1095.04	2640.00
1095.45	2646.00
1095.86	2659.00
1096.27	2643.00
1096.68	2638.00
1097.09	2634.00
1097.50	2629.00
1097.90	2631.00
1098.31	2630.00
1098.72	2639.00
1099.13	2635.00
1099.54	2629.00
1099.95	2626.00
1100.36	2639.00
1100.76	2621.00
1101.17	2629.00
1101.58	2624.00
1101.99	2628.00
1102.40	2620.00
1102.81	2624.00
1103.22	2627.00
1103.62	2613.00
1104.03	2615.00
1104.44	2619.00
1104.85	2625.00
1105.26	2617.00
1105.66	2615.00
1106.07	2613.00
1106.48	2622.00
1106.89	2615.00
1107.30	2608.00
1107.70	2609.00
1108.11	2614.00
1108.52	2624.00
1108.93	2611.00
1109.33	2605.00
1109.74	2608.00
1110.15	2614.00
1110.56	2604.00
1110.96	2606.00
1111.37	2610.00
1111.78	2603.00
1112.19	2615.00
1112.59	2603.00
1113.00	2618.00
1113.41	2601.00
1113.81	2604.00
1114.22	2607.00
1114.63	2575.00
1115.03	2574.00
1115.44	2579.00
1115.85	2576.00
>>>>>End Processed Spectral Data<<<<<
