SpectraSuite Data File
++++++++++++++++++++++++++++++++++++
Date: Thu Aug 05 09:52:33 EEST 2021
User: CanSEE
Dark Spectrum Present: No
Reference Spectrum Present: No
Number of Sampled Component Spectra: 1
Spectrometers: MAYP112785
Integration Time (usec): 10000 (MAYP112785)
Spectra Averaged: 1 (MAYP112785)
Boxcar Smoothing: 0 (MAYP112785)
Correct for Electrical Dark: No (MAYP112785)
Strobe/Lamp Enabled: No (MAYP112785)
Correct for Detector Non-linearity: No (MAYP112785)
Correct for Stray Light: No (MAYP112785)
Number of Pixels in Processed Spectrum: 2068
>>>>>Begin Processed Spectral Data<<<<<
198.35	3436.00
198.82	2471.00
199.30	2580.00
199.77	2563.00
200.24	2581.00
200.71	2577.00
201.18	2584.00
201.65	2594.00
202.13	2582.00
202.60	2583.00
203.07	2588.00
203.54	2589.00
204.01	2583.00
204.48	2578.00
204.96	2582.00
205.43	2581.00
205.90	2584.00
206.37	2578.00
206.84	2581.00
207.31	2581.00
207.78	2581.00
208.26	2577.00
208.73	2582.00
209.20	2579.00
209.67	2582.00
210.14	2589.00
210.61	2587.00
211.08	2581.00
211.56	2583.00
212.03	2582.00
212.50	2583.00
212.97	2574.00
213.44	2581.00
213.91	2580.00
214.38	2578.00
214.85	2587.00
215.33	2580.00
215.80	2582.00
216.27	2577.00
216.74	2583.00
217.21	2577.00
217.68	2583.00
218.15	2580.00
218.62	2576.00
219.09	2578.00
219.57	2575.00
220.04	2576.00
220.51	2581.00
220.98	2584.00
221.45	2578.00
221.92	2583.00
222.39	2572.00
222.86	2578.00
223.33	2585.00
223.80	2580.00
224.27	2579.00
224.74	2583.00
225.22	2584.00
225.69	2584.00
226.16	2580.00
226.63	2586.00
227.10	2588.00
227.57	2576.00
228.04	2580.00
228.51	2589.00
228.98	2586.00
229.45	2583.00
229.92	2578.00
230.39	2580.00
230.86	2591.00
231.33	2579.00
231.80	2582.00
232.27	2584.00
232.75	2579.00
233.22	2578.00
233.69	2578.00
234.16	2591.00
234.63	2580.00
235.10	2576.00
235.57	2581.00
236.04	2583.00
236.51	2588.00
236.98	2583.00
237.45	2579.00
237.92	2587.00
238.39	2582.00
238.86	2583.00
239.33	2632.00
239.80	2583.00
240.27	2578.00
240.74	2580.00
241.21	2581.00
241.68	2581.00
242.15	2582.00
242.62	2583.00
243.09	2578.00
243.56	2579.00
244.03	2579.00
244.50	2580.00
244.97	2579.00
245.44	2593.00
245.91	2576.00
246.38	2584.00
246.85	2586.00
247.32	2583.00
247.79	2581.00
248.26	2579.00
248.73	2583.00
249.20	2587.00
249.67	2580.00
250.14	2580.00
250.61	2583.00
251.08	2589.00
251.55	2575.00
252.02	2585.00
252.49	2575.00
252.96	2590.00
253.43	2583.00
253.90	2585.00
254.37	2583.00
254.84	2576.00
255.31	2586.00
255.77	2580.00
256.24	2581.00
256.71	2577.00
257.18	2585.00
257.65	2587.00
258.12	2583.00
258.59	2584.00
259.06	2587.00
259.53	2581.00
260.00	2589.00
260.47	2588.00
260.94	2589.00
261.41	2587.00
261.88	2582.00
262.35	2585.00
262.81	2588.00
263.28	2580.00
263.75	2580.00
264.22	2573.00
264.69	2587.00
265.16	2585.00
265.63	2577.00
266.10	2577.00
266.57	2582.00
267.04	2579.00
267.51	2589.00
267.97	2580.00
268.44	2579.00
268.91	2583.00
269.38	2582.00
269.85	2581.00
270.32	2578.00
270.79	2584.00
271.26	2584.00
271.73	2583.00
272.19	2581.00
272.66	2583.00
273.13	2586.00
273.60	2583.00
274.07	2581.00
274.54	2586.00
275.01	2584.00
275.48	2587.00
275.94	2580.00
276.41	2579.00
276.88	2583.00
277.35	2581.00
277.82	2581.00
278.29	2585.00
278.76	2586.00
279.22	2590.00
279.69	2585.00
280.16	2583.00
280.63	2585.00
281.10	2583.00
281.57	2573.00
282.04	2583.00
282.50	2583.00
282.97	2575.00
283.44	2585.00
283.91	2579.00
284.38	2581.00
284.85	2587.00
285.31	2583.00
285.78	2582.00
286.25	2577.00
286.72	2571.00
287.19	2583.00
287.65	2592.00
288.12	2585.00
288.59	2583.00
289.06	2584.00
289.53	2586.00
289.99	2579.00
290.46	2582.00
290.93	2584.00
291.40	2583.00
291.87	2575.00
292.33	2580.00
292.80	2580.00
293.27	2579.00
293.74	2583.00
294.21	2581.00
294.67	2586.00
295.14	2578.00
295.61	2581.00
296.08	2584.00
296.54	2582.00
297.01	2586.00
297.48	2588.00
297.95	2581.00
298.42	2578.00
298.88	2585.00
299.35	2587.00
299.82	2593.00
300.29	2580.00
300.75	2585.00
301.22	2579.00
301.69	2582.00
302.16	2582.00
302.62	2576.00
303.09	2585.00
303.56	2582.00
304.03	2582.00
304.49	2589.00
304.96	2589.00
305.43	2586.00
305.90	2584.00
306.36	2583.00
306.83	2593.00
307.30	2590.00
307.76	2591.00
308.23	2595.00
308.70	2587.00
309.17	2591.00
309.63	2594.00
310.10	2595.00
310.57	2606.00
311.03	2615.00
311.50	2607.00
311.97	2613.00
312.44	2617.00
312.90	2609.00
313.37	2626.00
313.84	2626.00
314.30	2629.00
314.77	2630.00
315.24	2631.00
315.70	2639.00
316.17	2638.00
316.64	2646.00
317.10	2639.00
317.57	2650.00
318.04	2653.00
318.50	2656.00
318.97	2662.00
319.44	2673.00
319.90	2663.00
320.37	2678.00
320.84	2667.00
321.30	2674.00
321.77	2674.00
322.24	2672.00
322.70	2671.00
323.17	2677.00
323.64	2694.00
324.10	2691.00
324.57	2717.00
325.04	2704.00
325.50	2730.00
325.97	2737.00
326.44	2744.00
326.90	2750.00
327.37	2757.00
327.84	2754.00
328.30	2747.00
328.77	2757.00
329.23	2754.00
329.70	2793.00
330.17	2776.00
330.63	2770.00
331.10	2762.00
331.56	2772.00
332.03	2767.00
332.50	2784.00
332.96	2763.00
333.43	2784.00
333.90	2775.00
334.36	2768.00
334.83	2778.00
335.29	2792.00
335.76	2778.00
336.22	2771.00
336.69	2763.00
337.16	2764.00
337.62	2776.00
338.09	2783.00
338.55	2795.00
339.02	2789.00
339.49	2801.00
339.95	2815.00
340.42	2819.00
340.88	2812.00
341.35	2811.00
341.81	2816.00
342.28	2831.00
342.75	2806.00
343.21	2825.00
343.68	2833.00
344.14	2813.00
344.61	2797.00
345.07	2807.00
345.54	2817.00
346.00	2830.00
346.47	2832.00
346.93	2845.00
347.40	2856.00
347.87	2829.00
348.33	2843.00
348.80	2862.00
349.26	2846.00
349.73	2867.00
350.19	2875.00
350.66	2907.00
351.12	2875.00
351.59	2876.00
352.05	2869.00
352.52	2877.00
352.98	2863.00
353.45	2887.00
353.91	2917.00
354.38	2903.00
354.84	2928.00
355.31	2902.00
355.77	2900.00
356.24	2865.00
356.70	2874.00
357.17	2834.00
357.63	2846.00
358.10	2832.00
358.56	2827.00
359.03	2844.00
359.49	2884.00
359.96	2905.00
360.42	2911.00
360.89	2891.00
361.35	2883.00
361.82	2880.00
362.28	2896.00
362.75	2932.00
363.21	2918.00
363.67	2951.00
364.14	2940.00
364.60	2945.00
365.07	2934.00
365.53	2963.00
366.00	2982.00
366.46	2989.00
366.93	2997.00
367.39	2988.00
367.86	2981.00
368.32	2979.00
368.78	2981.00
369.25	2987.00
369.71	3024.00
370.18	3013.00
370.64	2993.00
371.11	2983.00
371.57	2992.00
372.03	2988.00
372.50	2947.00
372.96	2962.00
373.43	2932.00
373.89	2939.00
374.35	2937.00
374.82	2939.00
375.28	2942.00
375.75	3005.00
376.21	3026.00
376.67	3034.00
377.14	3064.00
377.60	3086.00
378.07	3085.00
378.53	3108.00
378.99	3045.00
379.46	3050.00
379.92	3024.00
380.39	3026.00
380.85	3062.00
381.31	3053.00
381.78	3011.00
382.24	2971.00
382.70	2922.00
383.17	2912.00
383.63	2931.00
384.09	2945.00
384.56	2968.00
385.02	3068.00
385.48	3037.00
385.95	3031.00
386.41	3053.00
386.88	3067.00
387.34	3055.00
387.80	3040.00
388.27	3070.00
388.73	3057.00
389.19	3111.00
389.66	3151.00
390.12	3181.00
390.58	3177.00
391.05	3154.00
391.51	3206.00
391.97	3164.00
392.43	3102.00
392.90	3027.00
393.36	2977.00
393.82	2963.00
394.29	3049.00
394.75	3149.00
395.21	3181.00
395.68	3189.00
396.14	3175.00
396.60	3107.00
397.07	3072.00
397.53	3150.00
397.99	3278.00
398.45	3380.00
398.92	3448.00
399.38	3453.00
399.84	3493.00
400.31	3481.00
400.77	3521.00
401.23	3559.00
401.69	3570.00
402.16	3587.00
402.62	3596.00
403.08	3571.00
403.54	3550.00
404.01	3548.00
404.47	3551.00
404.93	3563.00
405.39	3546.00
405.86	3545.00
406.32	3552.00
406.78	3529.00
407.24	3564.00
407.71	3609.00
408.17	3597.00
408.63	3628.00
409.09	3652.00
409.56	3659.00
410.02	3602.00
410.48	3567.00
410.94	3620.00
411.40	3698.00
411.87	3750.00
412.33	3740.00
412.79	3746.00
413.25	3705.00
413.71	3715.00
414.18	3733.00
414.64	3739.00
415.10	3737.00
415.56	3754.00
416.02	3725.00
416.49	3770.00
416.95	3785.00
417.41	3732.00
417.87	3737.00
418.33	3676.00
418.80	3720.00
419.26	3731.00
419.72	3744.00
420.18	3782.00
420.64	3768.00
421.10	3823.00
421.57	3832.00
422.03	3815.00
422.49	3771.00
422.95	3751.00
423.41	3746.00
423.87	3807.00
424.34	3836.00
424.80	3801.00
425.26	3794.00
425.72	3804.00
426.18	3789.00
426.64	3763.00
427.10	3826.00
427.57	3716.00
428.03	3735.00
428.49	3764.00
428.95	3682.00
429.41	3683.00
429.87	3639.00
430.33	3620.00
430.79	3606.00
431.26	3668.00
431.72	3783.00
432.18	3943.00
432.64	3892.00
433.10	3813.00
433.56	3921.00
434.02	3923.00
434.48	3872.00
434.94	3929.00
435.40	3987.00
435.87	4049.00
436.33	4047.00
436.79	4047.00
437.25	3974.00
437.71	3958.00
438.17	3951.00
438.63	3976.00
439.09	3926.00
439.55	3986.00
440.01	4062.00
440.47	4089.00
440.93	4073.00
441.39	4145.00
441.85	4161.00
442.32	4184.00
442.78	4202.00
443.24	4198.00
443.70	4242.00
444.16	4202.00
444.62	4227.00
445.08	4237.00
445.54	4193.00
446.00	4161.00
446.46	4258.00
446.92	4280.00
447.38	4319.00
447.84	4321.00
448.30	4323.00
448.76	4345.00
449.22	4379.00
449.68	4377.00
450.14	4383.00
450.60	4442.00
451.06	4493.00
451.52	4419.00
451.98	4405.00
452.44	4388.00
452.90	4354.00
453.36	4360.00
453.82	4388.00
454.28	4426.00
454.74	4411.00
455.20	4450.00
455.66	4467.00
456.12	4489.00
456.58	4544.00
457.04	4507.00
457.50	4477.00
457.96	4495.00
458.42	4497.00
458.88	4423.00
459.34	4495.00
459.80	4514.00
460.26	4495.00
460.72	4541.00
461.18	4608.00
461.64	4591.00
462.10	4551.00
462.55	4625.00
463.01	4579.00
463.47	4581.00
463.93	4563.00
464.39	4585.00
464.85	4573.00
465.31	4499.00
465.77	4507.00
466.23	4573.00
466.69	4531.00
467.15	4545.00
467.61	4573.00
468.07	4632.00
468.52	4595.00
468.98	4576.00
469.44	4602.00
469.90	4546.00
470.36	4579.00
470.82	4538.00
471.28	4638.00
471.74	4676.00
472.20	4620.00
472.66	4675.00
473.11	4679.00
473.57	4644.00
474.03	4645.00
474.49	4663.00
474.95	4741.00
475.41	4686.00
475.87	4646.00
476.33	4681.00
476.78	4663.00
477.24	4653.00
477.70	4764.00
478.16	4713.00
478.62	4796.00
479.08	4754.00
479.54	4736.00
479.99	4810.00
480.45	4768.00
480.91	4794.00
481.37	4762.00
481.83	4795.00
482.29	4786.00
482.74	4807.00
483.20	4804.00
483.66	4822.00
484.12	4731.00
484.58	4707.00
485.04	4603.00
485.49	4556.00
485.95	4559.00
486.41	4457.00
486.87	4503.00
487.33	4621.00
487.78	4701.00
488.24	4728.00
488.70	4754.00
489.16	4720.00
489.62	4768.00
490.07	4853.00
490.53	4843.00
490.99	4768.00
491.45	4758.00
491.90	4771.00
492.36	4728.00
492.82	4759.00
493.28	4783.00
493.74	4792.00
494.19	4820.00
494.65	4846.00
495.11	4905.00
495.57	4891.00
496.02	4858.00
496.48	4844.00
496.94	4881.00
497.40	4821.00
497.85	4848.00
498.31	4773.00
498.77	4759.00
499.23	4839.00
499.68	4874.00
500.14	4814.00
500.60	4721.00
501.06	4785.00
501.51	4782.00
501.97	4767.00
502.43	4829.00
502.88	4805.00
503.34	4721.00
503.80	4830.00
504.26	4860.00
504.71	4816.00
505.17	4861.00
505.63	4885.00
506.08	4909.00
506.54	4905.00
507.00	4812.00
507.45	4854.00
507.91	4862.00
508.37	4898.00
508.82	4872.00
509.28	4911.00
509.74	4945.00
510.19	4895.00
510.65	4909.00
511.11	4923.00
511.56	4936.00
512.02	4980.00
512.48	4944.00
512.93	4884.00
513.39	4917.00
513.85	4857.00
514.30	4872.00
514.76	4893.00
515.22	4894.00
515.67	4888.00
516.13	4758.00
516.59	4757.00
517.04	4679.00
517.50	4679.00
517.95	4737.00
518.41	4832.00
518.87	4732.00
519.32	4790.00
519.78	4848.00
520.24	4912.00
520.69	5001.00
521.15	4951.00
521.60	4945.00
522.06	4970.00
522.52	4964.00
522.97	4996.00
523.43	5019.00
523.88	5033.00
524.34	5079.00
524.80	5084.00
525.25	5084.00
525.71	4970.00
526.16	4928.00
526.62	4899.00
527.07	4872.00
527.53	4922.00
527.99	4947.00
528.44	5055.00
528.90	5081.00
529.35	5073.00
529.81	5155.00
530.26	5125.00
530.72	5105.00
531.17	5095.00
531.63	5082.00
532.09	5083.00
532.54	5059.00
533.00	5029.00
533.45	5079.00
533.91	5008.00
534.36	5077.00
534.82	5099.00
535.27	5182.00
535.73	5160.00
536.18	5159.00
536.64	5067.00
537.09	5120.00
537.55	5065.00
538.00	5148.00
538.46	5051.00
538.91	5072.00
539.37	5077.00
539.82	5022.00
540.28	5007.00
540.73	5032.00
541.19	5080.00
541.64	5020.00
542.10	5119.00
542.55	5068.00
543.01	5093.00
543.46	5130.00
543.92	5143.00
544.37	5167.00
544.83	5177.00
545.28	5148.00
545.74	5113.00
546.19	5169.00
546.64	5206.00
547.10	5163.00
547.55	5092.00
548.01	5123.00
548.46	5122.00
548.92	5169.00
549.37	5139.00
549.83	5192.00
550.28	5193.00
550.73	5223.00
551.19	5179.00
551.64	5188.00
552.10	5185.00
552.55	5130.00
553.00	5194.00
553.46	5202.00
553.91	5218.00
554.37	5192.00
554.82	5276.00
555.28	5221.00
555.73	5241.00
556.18	5172.00
556.64	5163.00
557.09	5197.00
557.54	5129.00
558.00	5116.00
558.45	5092.00
558.91	5089.00
559.36	5074.00
559.81	5130.00
560.27	5190.00
560.72	5191.00
561.17	5215.00
561.63	5166.00
562.08	5152.00
562.54	5179.00
562.99	5200.00
563.44	5216.00
563.90	5168.00
564.35	5153.00
564.80	5134.00
565.26	5127.00
565.71	5117.00
566.16	5079.00
566.62	5129.00
567.07	5157.00
567.52	5145.00
567.98	5188.00
568.43	5068.00
568.88	5100.00
569.34	5160.00
569.79	5106.00
570.24	5122.00
570.69	5114.00
571.15	5030.00
571.60	5127.00
572.05	5119.00
572.51	5139.00
572.96	5215.00
573.41	5213.00
573.86	5229.00
574.32	5178.00
574.77	5137.00
575.22	5113.00
575.68	5143.00
576.13	5178.00
576.58	5175.00
577.03	5207.00
577.49	5151.00
577.94	5182.00
578.39	5105.00
578.84	5159.00
579.30	5134.00
579.75	5205.00
580.20	5214.00
580.65	5216.00
581.11	5252.00
581.56	5267.00
582.01	5267.00
582.46	5303.00
582.92	5260.00
583.37	5279.00
583.82	5251.00
584.27	5293.00
584.72	5242.00
585.18	5225.00
585.63	5280.00
586.08	5274.00
586.53	5191.00
586.98	5197.00
587.44	5218.00
587.89	5207.00
588.34	5071.00
588.79	5020.00
589.24	4976.00
589.70	4935.00
590.15	4998.00
590.60	5104.00
591.05	5096.00
591.50	5140.00
591.96	5157.00
592.41	5183.00
592.86	5152.00
593.31	5180.00
593.76	5150.00
594.21	5132.00
594.66	5145.00
595.12	5190.00
595.57	5194.00
596.02	5159.00
596.47	5242.00
596.92	5246.00
597.37	5172.00
597.82	5222.00
598.28	5170.00
598.73	5201.00
599.18	5161.00
599.63	5149.00
600.08	5212.00
600.53	5156.00
600.98	5159.00
601.43	5197.00
601.88	5216.00
602.34	5268.00
602.79	5183.00
603.24	5224.00
603.69	5223.00
604.14	5270.00
604.59	5266.00
605.04	5278.00
605.49	5292.00
605.94	5240.00
606.39	5252.00
606.84	5288.00
607.30	5275.00
607.75	5204.00
608.20	5269.00
608.65	5178.00
609.10	5205.00
609.55	5266.00
610.00	5261.00
610.45	5215.00
610.90	5237.00
611.35	5263.00
611.80	5251.00
612.25	5271.00
612.70	5246.00
613.15	5191.00
613.60	5247.00
614.05	5255.00
614.50	5247.00
614.95	5248.00
615.40	5250.00
615.85	5238.00
616.30	5161.00
616.75	5190.00
617.20	5175.00
617.65	5214.00
618.10	5267.00
618.55	5289.00
619.00	5237.00
619.45	5325.00
619.90	5242.00
620.35	5341.00
620.80	5303.00
621.25	5276.00
621.70	5251.00
622.15	5254.00
622.60	5193.00
623.05	5216.00
623.50	5190.00
623.95	5222.00
624.40	5239.00
624.85	5183.00
625.30	5183.00
625.75	5184.00
626.20	5171.00
626.65	5202.00
627.10	5207.00
627.55	5164.00
627.99	5102.00
628.44	5092.00
628.89	5087.00
629.34	5160.00
629.79	5131.00
630.24	5105.00
630.69	5193.00
631.14	5226.00
631.59	5232.00
632.04	5173.00
632.49	5191.00
632.94	5239.00
633.38	5171.00
633.83	5183.00
634.28	5228.00
634.73	5247.00
635.18	5260.00
635.63	5291.00
636.08	5252.00
636.53	5236.00
636.97	5289.00
637.42	5364.00
637.87	5280.00
638.32	5309.00
638.77	5305.00
639.22	5327.00
639.67	5325.00
640.11	5272.00
640.56	5278.00
641.01	5296.00
641.46	5322.00
641.91	5285.00
642.36	5324.00
642.81	5290.00
643.25	5341.00
643.70	5295.00
644.15	5284.00
644.60	5297.00
645.05	5302.00
645.49	5250.00
645.94	5202.00
646.39	5233.00
646.84	5228.00
647.29	5224.00
647.73	5167.00
648.18	5204.00
648.63	5172.00
649.08	5158.00
649.53	5154.00
649.97	5200.00
650.42	5211.00
650.87	5274.00
651.32	5261.00
651.77	5237.00
652.21	5209.00
652.66	5236.00
653.11	5282.00
653.56	5268.00
654.00	5253.00
654.45	5209.00
654.90	5174.00
655.35	5165.00
655.79	4959.00
656.24	4816.00
656.69	4947.00
657.14	4934.00
657.58	5073.00
658.03	5170.00
658.48	5158.00
658.92	5289.00
659.37	5262.00
659.82	5251.00
660.27	5289.00
660.71	5254.00
661.16	5255.00
661.61	5347.00
662.05	5328.00
662.50	5382.00
662.95	5321.00
663.39	5248.00
663.84	5318.00
664.29	5329.00
664.74	5292.00
665.18	5302.00
665.63	5321.00
666.08	5298.00
666.52	5256.00
666.97	5258.00
667.42	5351.00
667.86	5271.00
668.31	5307.00
668.76	5317.00
669.20	5339.00
669.65	5276.00
670.09	5212.00
670.54	5285.00
670.99	5270.00
671.43	5244.00
671.88	5256.00
672.33	5281.00
672.77	5312.00
673.22	5326.00
673.66	5295.00
674.11	5258.00
674.56	5216.00
675.00	5244.00
675.45	5252.00
675.90	5236.00
676.34	5258.00
676.79	5316.00
677.23	5270.00
677.68	5275.00
678.12	5235.00
678.57	5244.00
679.02	5234.00
679.46	5247.00
679.91	5246.00
680.35	5259.00
680.80	5219.00
681.25	5222.00
681.69	5203.00
682.14	5238.00
682.58	5235.00
683.03	5228.00
683.47	5232.00
683.92	5238.00
684.36	5183.00
684.81	5199.00
685.25	5178.00
685.70	5214.00
686.15	5065.00
686.59	4824.00
687.04	4519.00
687.48	4390.00
687.93	4505.00
688.37	4681.00
688.82	4698.00
689.26	4729.00
689.71	4723.00
690.15	4774.00
690.60	4821.00
691.04	4876.00
691.49	4925.00
691.93	4938.00
692.38	4880.00
692.82	4966.00
693.27	4983.00
693.71	4940.00
694.16	4904.00
694.60	4941.00
695.04	4899.00
695.49	4968.00
695.93	4951.00
696.38	4987.00
696.82	5020.00
697.27	5124.00
697.71	5037.00
698.16	5044.00
698.60	4992.00
699.04	4957.00
699.49	4949.00
699.93	4934.00
700.38	4922.00
700.82	4936.00
701.27	4958.00
701.71	4933.00
702.15	4905.00
702.60	4966.00
703.04	4937.00
703.49	4969.00
703.93	4993.00
704.37	5007.00
704.82	5067.00
705.26	5070.00
705.71	4991.00
706.15	4957.00
706.59	4987.00
707.04	5026.00
707.48	5038.00
707.93	4996.00
708.37	5071.00
708.81	5019.00
709.26	4993.00
709.70	5047.00
710.14	4996.00
710.59	5037.00
711.03	5015.00
711.47	5030.00
711.92	5004.00
712.36	5018.00
712.80	5001.00
713.25	4947.00
713.69	5000.00
714.13	4987.00
714.58	4984.00
715.02	4938.00
715.46	4918.00
715.91	4846.00
716.35	4806.00
716.79	4666.00
717.24	4547.00
717.68	4442.00
718.12	4434.00
718.57	4398.00
719.01	4350.00
719.45	4328.00
719.89	4286.00
720.34	4305.00
720.78	4388.00
721.22	4555.00
721.66	4684.00
722.11	4745.00
722.55	4674.00
722.99	4630.00
723.44	4511.00
723.88	4468.00
724.32	4370.00
724.76	4436.00
725.21	4386.00
725.65	4426.00
726.09	4528.00
726.53	4435.00
726.97	4500.00
727.42	4482.00
727.86	4406.00
728.30	4483.00
728.74	4502.00
729.19	4433.00
729.63	4474.00
730.07	4482.00
730.51	4530.00
730.95	4539.00
731.40	4498.00
731.84	4576.00
732.28	4586.00
732.72	4680.00
733.16	4714.00
733.61	4698.00
734.05	4750.00
734.49	4773.00
734.93	4739.00
735.37	4743.00
735.81	4738.00
736.26	4730.00
736.70	4702.00
737.14	4759.00
737.58	4697.00
738.02	4744.00
738.46	4709.00
738.90	4687.00
739.35	4747.00
739.79	4730.00
740.23	4799.00
740.67	4751.00
741.11	4683.00
741.55	4691.00
741.99	4757.00
742.44	4753.00
742.88	4751.00
743.32	4770.00
743.76	4760.00
744.20	4785.00
744.64	4740.00
745.08	4791.00
745.52	4769.00
745.96	4786.00
746.40	4790.00
746.84	4762.00
747.29	4792.00
747.73	4832.00
748.17	4804.00
748.61	4836.00
749.05	4791.00
749.49	4747.00
749.93	4791.00
750.37	4794.00
750.81	4824.00
751.25	4755.00
751.69	4833.00
752.13	4800.00
752.57	4768.00
753.01	4753.00
753.45	4780.00
753.89	4798.00
754.33	4788.00
754.77	4827.00
755.21	4816.00
755.65	4848.00
756.09	4799.00
756.53	4782.00
756.97	4797.00
757.41	4800.00
757.85	4757.00
758.29	4678.00
758.73	4676.00
759.17	4514.00
759.61	3948.00
760.05	3334.00
760.49	2982.00
760.93	2931.00
761.37	3115.00
761.81	3483.00
762.25	3646.00
762.69	3503.00
763.13	3347.00
763.57	3376.00
764.01	3446.00
764.45	3571.00
764.89	3733.00
765.33	3849.00
765.77	3975.00
766.21	4140.00
766.65	4263.00
767.09	4365.00
767.53	4496.00
767.96	4497.00
768.40	4592.00
768.84	4607.00
769.28	4592.00
769.72	4623.00
770.16	4689.00
770.60	4697.00
771.04	4672.00
771.48	4643.00
771.92	4732.00
772.35	4688.00
772.79	4713.00
773.23	4654.00
773.67	4696.00
774.11	4659.00
774.55	4668.00
774.99	4652.00
775.43	4644.00
775.86	4650.00
776.30	4674.00
776.74	4698.00
777.18	4657.00
777.62	4674.00
778.06	4623.00
778.50	4684.00
778.93	4601.00
779.37	4631.00
779.81	4613.00
780.25	4614.00
780.69	4594.00
781.12	4660.00
781.56	4610.00
782.00	4641.00
782.44	4616.00
782.88	4592.00
783.32	4602.00
783.75	4601.00
784.19	4606.00
784.63	4582.00
785.07	4581.00
785.50	4566.00
785.94	4558.00
786.38	4516.00
786.82	4518.00
787.26	4501.00
787.69	4546.00
788.13	4532.00
788.57	4525.00
789.01	4542.00
789.44	4433.00
789.88	4465.00
790.32	4480.00
790.76	4431.00
791.19	4392.00
791.63	4393.00
792.07	4437.00
792.51	4419.00
792.94	4420.00
793.38	4366.00
793.82	4369.00
794.25	4380.00
794.69	4391.00
795.13	4445.00
795.56	4459.00
796.00	4395.00
796.44	4309.00
796.88	4335.00
797.31	4411.00
797.75	4377.00
798.19	4358.00
798.62	4378.00
799.06	4363.00
799.50	4358.00
799.93	4396.00
800.37	4344.00
800.81	4376.00
801.24	4350.00
801.68	4335.00
802.12	4342.00
802.55	4295.00
802.99	4303.00
803.43	4313.00
803.86	4303.00
804.30	4293.00
804.73	4252.00
805.17	4307.00
805.61	4330.00
806.04	4323.00
806.48	4340.00
806.92	4345.00
807.35	4296.00
807.79	4341.00
808.22	4260.00
808.66	4271.00
809.10	4277.00
809.53	4220.00
809.97	4218.00
810.40	4218.00
810.84	4214.00
811.27	4194.00
811.71	4192.00
812.15	4121.00
812.58	4191.00
813.02	4129.00
813.45	4006.00
813.89	3997.00
814.32	3948.00
814.76	3902.00
815.19	3863.00
815.63	3874.00
816.07	3830.00
816.50	3779.00
816.94	3801.00
817.37	3902.00
817.81	3813.00
818.24	3878.00
818.68	3878.00
819.11	3904.00
819.55	3884.00
819.98	3899.00
820.42	3965.00
820.85	4080.00
821.29	4000.00
821.72	3989.00
822.16	3925.00
822.59	3744.00
823.03	3594.00
823.46	3722.00
823.90	3895.00
824.33	3978.00
824.77	3998.00
825.20	4040.00
825.63	3997.00
826.07	3968.00
826.50	4024.00
826.94	4027.00
827.37	3908.00
827.81	3853.00
828.24	3915.00
828.68	3889.00
829.11	3906.00
829.54	3910.00
829.98	3925.00
830.41	3891.00
830.85	3962.00
831.28	3996.00
831.71	3943.00
832.15	3940.00
832.58	3929.00
833.02	3986.00
833.45	3886.00
833.88	3959.00
834.32	3938.00
834.75	4031.00
835.19	4022.00
835.62	3993.00
836.05	4018.00
836.49	4020.00
836.92	4004.00
837.35	4071.00
837.79	4039.00
838.22	4042.00
838.66	4072.00
839.09	4085.00
839.52	4119.00
839.96	4078.00
840.39	4112.00
840.82	4066.00
841.26	4038.00
841.69	4056.00
842.12	4043.00
842.56	3988.00
842.99	4072.00
843.42	4083.00
843.85	4034.00
844.29	4020.00
844.72	4046.00
845.15	4093.00
845.59	4074.00
846.02	4137.00
846.45	4114.00
846.88	4085.00
847.32	4050.00
847.75	4037.00
848.18	4059.00
848.62	4067.00
849.05	3993.00
849.48	3924.00
849.91	3875.00
850.35	3951.00
850.78	4029.00
851.21	3975.00
851.64	4014.00
852.08	4001.00
852.51	4043.00
852.94	3980.00
853.37	3998.00
853.80	3804.00
854.24	3705.00
854.67	3854.00
855.10	3904.00
855.53	3986.00
855.97	3974.00
856.40	4016.00
856.83	4048.00
857.26	4005.00
857.69	4020.00
858.13	4047.00
858.56	4037.00
858.99	4033.00
859.42	4005.00
859.85	4031.00
860.28	4067.00
860.72	4057.00
861.15	4009.00
861.58	3961.00
862.01	4014.00
862.44	3992.00
862.87	3979.00
863.30	4003.00
863.74	4009.00
864.17	4006.00
864.60	3994.00
865.03	3942.00
865.46	3965.00
865.89	3845.00
866.32	3766.00
866.75	3916.00
867.19	3941.00
867.62	3989.00
868.05	3991.00
868.48	3931.00
868.91	3947.00
869.34	3964.00
869.77	3946.00
870.20	3940.00
870.63	3943.00
871.06	3956.00
871.49	3928.00
871.93	3941.00
872.36	3978.00
872.79	3961.00
873.22	3960.00
873.65	3921.00
874.08	3937.00
874.51	3950.00
874.94	3964.00
875.37	3949.00
875.80	3910.00
876.23	3903.00
876.66	3934.00
877.09	3893.00
877.52	3879.00
877.95	3915.00
878.38	3897.00
878.81	3875.00
879.24	3926.00
879.67	3895.00
880.10	3864.00
880.53	3869.00
880.96	3879.00
881.39	3921.00
881.82	3904.00
882.25	3884.00
882.68	3979.00
883.11	3941.00
883.54	3947.00
883.97	3954.00
884.40	3895.00
884.83	3920.00
885.26	3905.00
885.69	3871.00
886.12	3845.00
886.55	3852.00
886.98	3876.00
887.40	3849.00
887.83	3857.00
888.26	3919.00
888.69	3848.00
889.12	3894.00
889.55	3887.00
889.98	3906.00
890.41	3896.00
890.84	3875.00
891.27	3866.00
891.70	3836.00
892.12	3851.00
892.55	3794.00
892.98	3794.00
893.41	3766.00
893.84	3768.00
894.27	3703.00
894.70	3692.00
895.13	3645.00
895.55	3680.00
895.98	3551.00
896.41	3585.00
896.84	3529.00
897.27	3542.00
897.70	3586.00
898.13	3552.00
898.55	3374.00
898.98	3430.00
899.41	3541.00
899.84	3505.00
900.27	3447.00
900.70	3454.00
901.12	3492.00
901.55	3491.00
901.98	3473.00
902.41	3505.00
902.84	3558.00
903.26	3666.00
903.69	3691.00
904.12	3676.00
904.55	3665.00
904.97	3630.00
905.40	3692.00
905.83	3576.00
906.26	3517.00
906.69	3493.00
907.11	3465.00
907.54	3467.00
907.97	3452.00
908.40	3400.00
908.82	3437.00
909.25	3433.00
909.68	3457.00
910.10	3423.00
910.53	3410.00
910.96	3536.00
911.39	3406.00
911.81	3488.00
912.24	3463.00
912.67	3365.00
913.09	3314.00
913.52	3402.00
913.95	3465.00
914.38	3456.00
914.80	3327.00
915.23	3318.00
915.66	3409.00
916.08	3477.00
916.51	3464.00
916.94	3359.00
917.36	3351.00
917.79	3436.00
918.22	3486.00
918.64	3464.00
919.07	3493.00
919.50	3515.00
919.92	3539.00
920.35	3533.00
920.78	3499.00
921.20	3447.00
921.63	3507.00
922.05	3502.00
922.48	3491.00
922.91	3431.00
923.33	3418.00
923.76	3412.00
924.18	3441.00
924.61	3430.00
925.04	3437.00
925.46	3418.00
925.89	3420.00
926.31	3435.00
926.74	3393.00
927.17	3319.00
927.59	3228.00
928.02	3174.00
928.44	3178.00
928.87	3135.00
929.29	3123.00
929.72	3072.00
930.15	3062.00
930.57	3015.00
931.00	2932.00
931.42	2898.00
931.85	2837.00
932.27	2854.00
932.70	2843.00
933.12	2788.00
933.55	2765.00
933.97	2771.00
934.40	2871.00
934.82	2812.00
935.25	2795.00
935.67	2812.00
936.10	2784.00
936.52	2769.00
936.95	2776.00
937.37	2755.00
937.80	2802.00
938.22	2873.00
938.65	2919.00
939.07	2930.00
939.50	2875.00
939.92	2857.00
940.35	2830.00
940.77	2847.00
941.19	2837.00
941.62	2847.00
942.04	2789.00
942.47	2793.00
942.89	2831.00
943.32	2751.00
943.74	2742.00
944.16	2826.00
944.59	2815.00
945.01	2803.00
945.44	2782.00
945.86	2799.00
946.29	2816.00
946.71	2810.00
947.13	2830.00
947.56	2799.00
947.98	2849.00
948.40	2881.00
948.83	2797.00
949.25	2769.00
949.68	2839.00
950.10	2918.00
950.52	2938.00
950.95	2844.00
951.37	2807.00
951.79	2819.00
952.22	2858.00
952.64	2883.00
953.06	2909.00
953.49	2881.00
953.91	2854.00
954.33	2882.00
954.76	2869.00
955.18	2886.00
955.60	2892.00
956.03	2891.00
956.45	2915.00
956.87	2988.00
957.30	2939.00
957.72	2951.00
958.14	2886.00
958.56	2886.00
958.99	2936.00
959.41	2957.00
959.83	2960.00
960.26	3028.00
960.68	3014.00
961.10	2989.00
961.52	2970.00
961.95	2984.00
962.37	3057.00
962.79	3021.00
963.21	3019.00
963.64	3031.00
964.06	3046.00
964.48	3062.00
964.90	3061.00
965.32	3026.00
965.75	3041.00
966.17	3082.00
966.59	3148.00
967.01	3168.00
967.44	3158.00
967.86	3196.00
968.28	3200.00
968.70	3233.00
969.12	3194.00
969.54	3195.00
969.97	3230.00
970.39	3188.00
970.81	3190.00
971.23	3217.00
971.65	3171.00
972.07	3169.00
972.50	3158.00
972.92	3137.00
973.34	3102.00
973.76	3125.00
974.18	3102.00
974.60	3148.00
975.02	3127.00
975.45	3105.00
975.87	3124.00
976.29	3174.00
976.71	3165.00
977.13	3156.00
977.55	3161.00
977.97	3187.00
978.39	3170.00
978.81	3174.00
979.24	3155.00
979.66	3164.00
980.08	3198.00
980.50	3187.00
980.92	3183.00
981.34	3196.00
981.76	3188.00
982.18	3181.00
982.60	3200.00
983.02	3210.00
983.44	3199.00
983.86	3183.00
984.28	3179.00
984.70	3188.00
985.12	3210.00
985.54	3196.00
985.96	3189.00
986.38	3202.00
986.80	3188.00
987.23	3230.00
987.65	3226.00
988.07	3215.00
988.49	3190.00
988.91	3203.00
989.33	3191.00
989.74	3202.00
990.16	3183.00
990.58	3207.00
991.00	3187.00
991.42	3178.00
991.84	3174.00
992.26	3188.00
992.68	3180.00
993.10	3175.00
993.52	3157.00
993.94	3160.00
994.36	3182.00
994.78	3151.00
995.20	3168.00
995.62	3159.00
996.04	3179.00
996.46	3183.00
996.88	3187.00
997.30	3170.00
997.71	3192.00
998.13	3178.00
998.55	3173.00
998.97	3177.00
999.39	3180.00
999.81	3180.00
1000.23	3182.00
1000.65	3195.00
1001.07	3159.00
1001.49	3175.00
1001.90	3181.00
1002.32	3161.00
1002.74	3164.00
1003.16	3153.00
1003.58	3151.00
1004.00	3138.00
1004.42	3139.00
1004.83	3133.00
1005.25	3156.00
1005.67	3136.00
1006.09	3136.00
1006.51	3152.00
1006.92	3134.00
1007.34	3145.00
1007.76	3132.00
1008.18	3159.00
1008.60	3148.00
1009.02	3152.00
1009.43	3136.00
1009.85	3158.00
1010.27	3114.00
1010.69	3104.00
1011.10	3112.00
1011.52	3117.00
1011.94	3123.00
1012.36	3136.00
1012.78	3104.00
1013.19	3123.00
1013.61	3101.00
1014.03	3102.00
1014.45	3094.00
1014.86	3097.00
1015.28	3071.00
1015.70	3058.00
1016.12	3055.00
1016.53	3062.00
1016.95	3078.00
1017.37	3024.00
1017.78	3050.00
1018.20	3026.00
1018.62	3048.00
1019.03	3038.00
1019.45	3035.00
1019.87	3059.00
1020.29	3035.00
1020.70	3015.00
1021.12	3025.00
1021.54	3032.00
1021.95	3010.00
1022.37	3019.00
1022.79	3022.00
1023.20	3006.00
1023.62	3003.00
1024.04	3011.00
1024.45	3009.00
1024.87	2994.00
1025.28	3002.00
1025.70	2968.00
1026.12	2984.00
1026.53	2998.00
1026.95	2954.00
1027.37	2977.00
1027.78	2971.00
1028.20	2950.00
1028.61	2955.00
1029.03	2957.00
1029.45	2963.00
1029.86	2933.00
1030.28	2934.00
1030.69	2928.00
1031.11	2932.00
1031.53	2915.00
1031.94	2923.00
1032.36	2931.00
1032.77	2914.00
1033.19	2924.00
1033.60	2913.00
1034.02	2918.00
1034.43	2929.00
1034.85	2898.00
1035.27	2910.00
1035.68	2910.00
1036.10	2900.00
1036.51	2899.00
1036.93	2889.00
1037.34	2884.00
1037.76	2875.00
1038.17	2881.00
1038.59	2876.00
1039.00	2863.00
1039.42	2855.00
1039.83	2866.00
1040.25	2853.00
1040.66	2860.00
1041.08	2842.00
1041.49	2831.00
1041.91	2858.00
1042.32	2858.00
1042.73	2845.00
1043.15	2835.00
1043.56	2810.00
1043.98	2847.00
1044.39	2837.00
1044.81	2827.00
1045.22	2829.00
1045.64	2814.00
1046.05	2809.00
1046.46	2801.00
1046.88	2812.00
1047.29	2805.00
1047.71	2811.00
1048.12	2798.00
1048.53	2811.00
1048.95	2801.00
1049.36	2792.00
1049.78	2786.00
1050.19	2771.00
1050.60	2785.00
1051.02	2763.00
1051.43	2770.00
1051.85	2789.00
1052.26	2783.00
1052.67	2762.00
1053.09	2776.00
1053.50	2750.00
1053.91	2792.00
1054.33	2752.00
1054.74	2753.00
1055.15	2749.00
1055.57	2738.00
1055.98	2767.00
1056.39	2746.00
1056.81	2744.00
1057.22	2736.00
1057.63	2733.00
1058.05	2730.00
1058.46	2749.00
1058.87	2732.00
1059.28	2735.00
1059.70	2724.00
1060.11	2724.00
1060.52	2742.00
1060.94	2720.00
1061.35	2705.00
1061.76	2728.00
1062.17	2712.00
1062.59	2698.00
1063.00	2718.00
1063.41	2714.00
1063.82	2713.00
1064.24	2699.00
1064.65	2694.00
1065.06	2711.00
1065.47	2709.00
1065.89	2702.00
1066.30	2696.00
1066.71	2697.00
1067.12	2694.00
1067.53	2692.00
1067.95	2688.00
1068.36	2680.00
1068.77	2688.00
1069.18	2679.00
1069.59	2689.00
1070.00	2678.00
1070.42	2670.00
1070.83	2677.00
1071.24	2677.00
1071.65	2669.00
1072.06	2665.00
1072.47	2678.00
1072.89	2670.00
1073.30	2673.00
1073.71	2667.00
1074.12	2664.00
1074.53	2677.00
1074.94	2665.00
1075.35	2656.00
1075.77	2664.00
1076.18	2656.00
1076.59	2669.00
1077.00	2657.00
1077.41	2662.00
1077.82	2660.00
1078.23	2657.00
1078.64	2643.00
1079.05	2658.00
1079.46	2656.00
1079.87	2650.00
1080.29	2641.00
1080.70	2651.00
1081.11	2639.00
1081.52	2643.00
1081.93	2647.00
1082.34	2648.00
1082.75	2655.00
1083.16	2646.00
1083.57	2648.00
1083.98	2637.00
1084.39	2632.00
1084.80	2630.00
1085.21	2637.00
1085.62	2632.00
1086.03	2651.00
1086.44	2629.00
1086.85	2636.00
1087.26	2626.00
1087.67	2635.00
1088.08	2638.00
1088.49	2628.00
1088.90	2628.00
1089.31	2627.00
1089.72	2628.00
1090.13	2625.00
1090.54	2636.00
1090.95	2627.00
1091.36	2623.00
1091.77	2617.00
1092.18	2623.00
1092.59	2615.00
1093.00	2613.00
1093.40	2618.00
1093.81	2621.00
1094.22	2613.00
1094.63	2610.00
1095.04	2619.00
1095.45	2604.00
1095.86	2611.00
1096.27	2603.00
1096.68	2608.00
1097.09	2608.00
1097.50	2605.00
1097.90	2602.00
1098.31	2607.00
1098.72	2606.00
1099.13	2607.00
1099.54	2594.00
1099.95	2593.00
1100.36	2595.00
1100.76	2598.00
1101.17	2598.00
1101.58	2596.00
1101.99	2598.00
1102.40	2595.00
1102.81	2593.00
1103.22	2586.00
1103.62	2590.00
1104.03	2587.00
1104.44	2592.00
1104.85	2589.00
1105.26	2585.00
1105.66	2601.00
1106.07	2583.00
1106.48	2588.00
1106.89	2590.00
1107.30	2591.00
1107.70	2587.00
1108.11	2583.00
1108.52	2578.00
1108.93	2576.00
1109.33	2588.00
1109.74	2580.00
1110.15	2582.00
1110.56	2589.00
1110.96	2578.00
1111.37	2586.00
1111.78	2577.00
1112.19	2581.00
1112.59	2584.00
1113.00	2580.00
1113.41	2581.00
1113.81	2583.00
1114.22	2590.00
1114.63	2559.00
1115.03	2561.00
1115.44	2555.00
1115.85	2556.00
>>>>>End Processed Spectral Data<<<<<
