SpectraSuite Data File
++++++++++++++++++++++++++++++++++++
Date: Thu Aug 05 09:52:33 EEST 2021
User: CanSEE
Dark Spectrum Present: No
Reference Spectrum Present: No
Number of Sampled Component Spectra: 1
Spectrometers: MAYP112785
Integration Time (usec): 10000 (MAYP112785)
Spectra Averaged: 1 (MAYP112785)
Boxcar Smoothing: 0 (MAYP112785)
Correct for Electrical Dark: No (MAYP112785)
Strobe/Lamp Enabled: No (MAYP112785)
Correct for Detector Non-linearity: No (MAYP112785)
Correct for Stray Light: No (MAYP112785)
Number of Pixels in Processed Spectrum: 2068
>>>>>Begin Processed Spectral Data<<<<<
198.35	3437.00
198.82	2478.00
199.30	2574.00
199.77	2555.00
200.24	2578.00
200.71	2582.00
201.18	2586.00
201.65	2586.00
202.13	2587.00
202.60	2593.00
203.07	2583.00
203.54	2582.00
204.01	2578.00
204.48	2580.00
204.96	2579.00
205.43	2572.00
205.90	2583.00
206.37	2585.00
206.84	2585.00
207.31	2579.00
207.78	2570.00
208.26	2582.00
208.73	2584.00
209.20	2580.00
209.67	2579.00
210.14	2583.00
210.61	2588.00
211.08	2582.00
211.56	2581.00
212.03	2577.00
212.50	2582.00
212.97	2579.00
213.44	2579.00
213.91	2582.00
214.38	2580.00
214.85	2585.00
215.33	2583.00
215.80	2579.00
216.27	2581.00
216.74	2582.00
217.21	2585.00
217.68	2584.00
218.15	2574.00
218.62	2577.00
219.09	2582.00
219.57	2583.00
220.04	2586.00
220.51	2579.00
220.98	2579.00
221.45	2589.00
221.92	2582.00
222.39	2582.00
222.86	2583.00
223.33	2585.00
223.80	2584.00
224.27	2580.00
224.74	2568.00
225.22	2580.00
225.69	2580.00
226.16	2583.00
226.63	2579.00
227.10	2581.00
227.57	2584.00
228.04	2576.00
228.51	2584.00
228.98	2583.00
229.45	2582.00
229.92	2584.00
230.39	2579.00
230.86	2579.00
231.33	2581.00
231.80	2583.00
232.27	2574.00
232.75	2580.00
233.22	2590.00
233.69	2583.00
234.16	2586.00
234.63	2586.00
235.10	2584.00
235.57	2581.00
236.04	2581.00
236.51	2582.00
236.98	2575.00
237.45	2581.00
237.92	2582.00
238.39	2581.00
238.86	2579.00
239.33	2632.00
239.80	2582.00
240.27	2589.00
240.74	2581.00
241.21	2581.00
241.68	2584.00
242.15	2582.00
242.62	2585.00
243.09	2581.00
243.56	2582.00
244.03	2581.00
244.50	2579.00
244.97	2586.00
245.44	2596.00
245.91	2582.00
246.38	2582.00
246.85	2581.00
247.32	2586.00
247.79	2580.00
248.26	2586.00
248.73	2581.00
249.20	2583.00
249.67	2582.00
250.14	2583.00
250.61	2582.00
251.08	2585.00
251.55	2586.00
252.02	2586.00
252.49	2581.00
252.96	2582.00
253.43	2586.00
253.90	2580.00
254.37	2578.00
254.84	2586.00
255.31	2578.00
255.77	2585.00
256.24	2576.00
256.71	2587.00
257.18	2584.00
257.65	2580.00
258.12	2581.00
258.59	2578.00
259.06	2581.00
259.53	2579.00
260.00	2585.00
260.47	2585.00
260.94	2583.00
261.41	2583.00
261.88	2590.00
262.35	2582.00
262.81	2579.00
263.28	2591.00
263.75	2588.00
264.22	2582.00
264.69	2587.00
265.16	2578.00
265.63	2586.00
266.10	2582.00
266.57	2580.00
267.04	2581.00
267.51	2571.00
267.97	2584.00
268.44	2587.00
268.91	2583.00
269.38	2584.00
269.85	2589.00
270.32	2584.00
270.79	2580.00
271.26	2583.00
271.73	2582.00
272.19	2579.00
272.66	2583.00
273.13	2589.00
273.60	2579.00
274.07	2581.00
274.54	2579.00
275.01	2583.00
275.48	2590.00
275.94	2582.00
276.41	2576.00
276.88	2580.00
277.35	2580.00
277.82	2579.00
278.29	2586.00
278.76	2581.00
279.22	2580.00
279.69	2587.00
280.16	2591.00
280.63	2579.00
281.10	2587.00
281.57	2579.00
282.04	2579.00
282.50	2580.00
282.97	2589.00
283.44	2586.00
283.91	2584.00
284.38	2589.00
284.85	2581.00
285.31	2583.00
285.78	2579.00
286.25	2579.00
286.72	2586.00
287.19	2582.00
287.65	2573.00
288.12	2584.00
288.59	2590.00
289.06	2589.00
289.53	2585.00
289.99	2581.00
290.46	2582.00
290.93	2581.00
291.40	2575.00
291.87	2584.00
292.33	2592.00
292.80	2574.00
293.27	2584.00
293.74	2575.00
294.21	2589.00
294.67	2574.00
295.14	2578.00
295.61	2586.00
296.08	2582.00
296.54	2574.00
297.01	2582.00
297.48	2587.00
297.95	2579.00
298.42	2587.00
298.88	2579.00
299.35	2583.00
299.82	2579.00
300.29	2586.00
300.75	2580.00
301.22	2589.00
301.69	2581.00
302.16	2584.00
302.62	2576.00
303.09	2578.00
303.56	2586.00
304.03	2583.00
304.49	2583.00
304.96	2590.00
305.43	2587.00
305.90	2586.00
306.36	2586.00
306.83	2591.00
307.30	2590.00
307.76	2596.00
308.23	2592.00
308.70	2595.00
309.17	2590.00
309.63	2594.00
310.10	2593.00
310.57	2601.00
311.03	2603.00
311.50	2616.00
311.97	2615.00
312.44	2609.00
312.90	2620.00
313.37	2621.00
313.84	2618.00
314.30	2626.00
314.77	2627.00
315.24	2619.00
315.70	2635.00
316.17	2625.00
316.64	2644.00
317.10	2646.00
317.57	2649.00
318.04	2646.00
318.50	2652.00
318.97	2658.00
319.44	2672.00
319.90	2659.00
320.37	2676.00
320.84	2686.00
321.30	2677.00
321.77	2661.00
322.24	2680.00
322.70	2676.00
323.17	2677.00
323.64	2678.00
324.10	2702.00
324.57	2711.00
325.04	2706.00
325.50	2727.00
325.97	2728.00
326.44	2748.00
326.90	2749.00
327.37	2749.00
327.84	2756.00
328.30	2738.00
328.77	2751.00
329.23	2769.00
329.70	2785.00
330.17	2800.00
330.63	2771.00
331.10	2771.00
331.56	2769.00
332.03	2783.00
332.50	2781.00
332.96	2790.00
333.43	2767.00
333.90	2768.00
334.36	2780.00
334.83	2773.00
335.29	2784.00
335.76	2775.00
336.22	2782.00
336.69	2750.00
337.16	2773.00
337.62	2766.00
338.09	2792.00
338.55	2777.00
339.02	2799.00
339.49	2800.00
339.95	2800.00
340.42	2815.00
340.88	2827.00
341.35	2823.00
341.81	2819.00
342.28	2828.00
342.75	2831.00
343.21	2826.00
343.68	2813.00
344.14	2813.00
344.61	2794.00
345.07	2800.00
345.54	2832.00
346.00	2824.00
346.47	2816.00
346.93	2829.00
347.40	2844.00
347.87	2850.00
348.33	2838.00
348.80	2838.00
349.26	2857.00
349.73	2863.00
350.19	2841.00
350.66	2891.00
351.12	2878.00
351.59	2862.00
352.05	2873.00
352.52	2856.00
352.98	2855.00
353.45	2891.00
353.91	2888.00
354.38	2922.00
354.84	2912.00
355.31	2940.00
355.77	2894.00
356.24	2878.00
356.70	2874.00
357.17	2846.00
357.63	2843.00
358.10	2845.00
358.56	2819.00
359.03	2828.00
359.49	2894.00
359.96	2913.00
360.42	2927.00
360.89	2879.00
361.35	2870.00
361.82	2901.00
362.28	2896.00
362.75	2917.00
363.21	2930.00
363.67	2927.00
364.14	2936.00
364.60	2951.00
365.07	2946.00
365.53	2966.00
366.00	3011.00
366.46	2988.00
366.93	2986.00
367.39	2980.00
367.86	2975.00
368.32	2982.00
368.78	2988.00
369.25	2987.00
369.71	3011.00
370.18	3003.00
370.64	2966.00
371.11	2974.00
371.57	3006.00
372.03	3022.00
372.50	2943.00
372.96	2939.00
373.43	2960.00
373.89	2938.00
374.35	2929.00
374.82	2962.00
375.28	2959.00
375.75	3008.00
376.21	3010.00
376.67	3020.00
377.14	3027.00
377.60	3076.00
378.07	3103.00
378.53	3109.00
378.99	3059.00
379.46	3045.00
379.92	3022.00
380.39	3040.00
380.85	3062.00
381.31	3043.00
381.78	2993.00
382.24	2974.00
382.70	2921.00
383.17	2929.00
383.63	2928.00
384.09	2957.00
384.56	3003.00
385.02	3047.00
385.48	3023.00
385.95	3019.00
386.41	3039.00
386.88	3038.00
387.34	3059.00
387.80	3061.00
388.27	3069.00
388.73	3103.00
389.19	3118.00
389.66	3174.00
390.12	3162.00
390.58	3184.00
391.05	3170.00
391.51	3204.00
391.97	3134.00
392.43	3106.00
392.90	3034.00
393.36	2983.00
393.82	2947.00
394.29	3071.00
394.75	3121.00
395.21	3204.00
395.68	3172.00
396.14	3161.00
396.60	3111.00
397.07	3065.00
397.53	3107.00
397.99	3263.00
398.45	3375.00
398.92	3435.00
399.38	3462.00
399.84	3513.00
400.31	3493.00
400.77	3524.00
401.23	3547.00
401.69	3544.00
402.16	3572.00
402.62	3632.00
403.08	3572.00
403.54	3569.00
404.01	3535.00
404.47	3582.00
404.93	3556.00
405.39	3531.00
405.86	3600.00
406.32	3541.00
406.78	3548.00
407.24	3574.00
407.71	3579.00
408.17	3604.00
408.63	3626.00
409.09	3619.00
409.56	3641.00
410.02	3622.00
410.48	3579.00
410.94	3668.00
411.40	3670.00
411.87	3693.00
412.33	3714.00
412.79	3694.00
413.25	3699.00
413.71	3732.00
414.18	3736.00
414.64	3767.00
415.10	3738.00
415.56	3747.00
416.02	3799.00
416.49	3799.00
416.95	3775.00
417.41	3765.00
417.87	3710.00
418.33	3730.00
418.80	3713.00
419.26	3760.00
419.72	3777.00
420.18	3796.00
420.64	3782.00
421.10	3823.00
421.57	3804.00
422.03	3785.00
422.49	3770.00
422.95	3759.00
423.41	3789.00
423.87	3812.00
424.34	3817.00
424.80	3799.00
425.26	3789.00
425.72	3768.00
426.18	3780.00
426.64	3825.00
427.10	3786.00
427.57	3751.00
428.03	3749.00
428.49	3758.00
428.95	3719.00
429.41	3688.00
429.87	3625.00
430.33	3603.00
430.79	3634.00
431.26	3677.00
431.72	3773.00
432.18	3915.00
432.64	3910.00
433.10	3846.00
433.56	3961.00
434.02	3910.00
434.48	3854.00
434.94	3923.00
435.40	3977.00
435.87	4019.00
436.33	4026.00
436.79	4045.00
437.25	4019.00
437.71	3976.00
438.17	3977.00
438.63	3967.00
439.09	3918.00
439.55	4008.00
440.01	4048.00
440.47	4054.00
440.93	4053.00
441.39	4129.00
441.85	4164.00
442.32	4194.00
442.78	4197.00
443.24	4171.00
443.70	4225.00
444.16	4195.00
444.62	4209.00
445.08	4198.00
445.54	4218.00
446.00	4191.00
446.46	4249.00
446.92	4281.00
447.38	4300.00
447.84	4285.00
448.30	4334.00
448.76	4328.00
449.22	4363.00
449.68	4404.00
450.14	4425.00
450.60	4450.00
451.06	4484.00
451.52	4462.00
451.98	4393.00
452.44	4417.00
452.90	4379.00
453.36	4352.00
453.82	4343.00
454.28	4427.00
454.74	4376.00
455.20	4442.00
455.66	4460.00
456.12	4492.00
456.58	4505.00
457.04	4526.00
457.50	4506.00
457.96	4535.00
458.42	4462.00
458.88	4459.00
459.34	4460.00
459.80	4491.00
460.26	4521.00
460.72	4552.00
461.18	4539.00
461.64	4564.00
462.10	4566.00
462.55	4598.00
463.01	4561.00
463.47	4569.00
463.93	4605.00
464.39	4603.00
464.85	4546.00
465.31	4499.00
465.77	4546.00
466.23	4591.00
466.69	4556.00
467.15	4467.00
467.61	4491.00
468.07	4544.00
468.52	4594.00
468.98	4571.00
469.44	4525.00
469.90	4566.00
470.36	4556.00
470.82	4560.00
471.28	4580.00
471.74	4661.00
472.20	4690.00
472.66	4673.00
473.11	4669.00
473.57	4652.00
474.03	4646.00
474.49	4731.00
474.95	4642.00
475.41	4658.00
475.87	4704.00
476.33	4644.00
476.78	4678.00
477.24	4721.00
477.70	4723.00
478.16	4686.00
478.62	4770.00
479.08	4741.00
479.54	4742.00
479.99	4736.00
480.45	4765.00
480.91	4815.00
481.37	4803.00
481.83	4779.00
482.29	4815.00
482.74	4827.00
483.20	4798.00
483.66	4755.00
484.12	4744.00
484.58	4708.00
485.04	4626.00
485.49	4590.00
485.95	4474.00
486.41	4549.00
486.87	4497.00
487.33	4573.00
487.78	4669.00
488.24	4694.00
488.70	4774.00
489.16	4807.00
489.62	4785.00
490.07	4768.00
490.53	4832.00
490.99	4724.00
491.45	4742.00
491.90	4743.00
492.36	4752.00
492.82	4730.00
493.28	4831.00
493.74	4809.00
494.19	4820.00
494.65	4834.00
495.11	4911.00
495.57	4926.00
496.02	4841.00
496.48	4835.00
496.94	4830.00
497.40	4865.00
497.85	4803.00
498.31	4886.00
498.77	4805.00
499.23	4791.00
499.68	4849.00
500.14	4811.00
500.60	4818.00
501.06	4755.00
501.51	4713.00
501.97	4747.00
502.43	4780.00
502.88	4838.00
503.34	4788.00
503.80	4820.00
504.26	4789.00
504.71	4825.00
505.17	4920.00
505.63	4867.00
506.08	4904.00
506.54	4940.00
507.00	4853.00
507.45	4878.00
507.91	4791.00
508.37	4923.00
508.82	4869.00
509.28	4879.00
509.74	4921.00
510.19	4946.00
510.65	4912.00
511.11	4977.00
511.56	4944.00
512.02	4939.00
512.48	4945.00
512.93	4900.00
513.39	4889.00
513.85	4903.00
514.30	4896.00
514.76	4914.00
515.22	4883.00
515.67	4863.00
516.13	4782.00
516.59	4720.00
517.04	4692.00
517.50	4655.00
517.95	4692.00
518.41	4784.00
518.87	4752.00
519.32	4825.00
519.78	4934.00
520.24	4919.00
520.69	4968.00
521.15	4903.00
521.60	4944.00
522.06	5008.00
522.52	4999.00
522.97	4969.00
523.43	5004.00
523.88	5015.00
524.34	5026.00
524.80	5077.00
525.25	4987.00
525.71	4998.00
526.16	4897.00
526.62	4866.00
527.07	4878.00
527.53	4854.00
527.99	4988.00
528.44	5116.00
528.90	5116.00
529.35	5096.00
529.81	5120.00
530.26	5094.00
530.72	5126.00
531.17	5156.00
531.63	5103.00
532.09	5043.00
532.54	5026.00
533.00	5048.00
533.45	5002.00
533.91	5051.00
534.36	5108.00
534.82	5068.00
535.27	5177.00
535.73	5156.00
536.18	5178.00
536.64	5086.00
537.09	5126.00
537.55	5099.00
538.00	5158.00
538.46	5116.00
538.91	5109.00
539.37	5075.00
539.82	5020.00
540.28	5011.00
540.73	5027.00
541.19	5097.00
541.64	5064.00
542.10	5105.00
542.55	5074.00
543.01	5088.00
543.46	5106.00
543.92	5113.00
544.37	5089.00
544.83	5168.00
545.28	5164.00
545.74	5097.00
546.19	5168.00
546.64	5157.00
547.10	5159.00
547.55	5181.00
548.01	5165.00
548.46	5110.00
548.92	5151.00
549.37	5134.00
549.83	5188.00
550.28	5146.00
550.73	5150.00
551.19	5167.00
551.64	5164.00
552.10	5216.00
552.55	5184.00
553.00	5139.00
553.46	5202.00
553.91	5204.00
554.37	5180.00
554.82	5224.00
555.28	5209.00
555.73	5230.00
556.18	5166.00
556.64	5139.00
557.09	5205.00
557.54	5156.00
558.00	5160.00
558.45	5122.00
558.91	5115.00
559.36	5088.00
559.81	5130.00
560.27	5191.00
560.72	5154.00
561.17	5180.00
561.63	5184.00
562.08	5190.00
562.54	5171.00
562.99	5192.00
563.44	5145.00
563.90	5175.00
564.35	5202.00
564.80	5156.00
565.26	5191.00
565.71	5157.00
566.16	5127.00
566.62	5137.00
567.07	5171.00
567.52	5212.00
567.98	5148.00
568.43	5131.00
568.88	5100.00
569.34	5114.00
569.79	5108.00
570.24	5158.00
570.69	5112.00
571.15	5034.00
571.60	5121.00
572.05	5205.00
572.51	5230.00
572.96	5221.00
573.41	5196.00
573.86	5273.00
574.32	5204.00
574.77	5134.00
575.22	5129.00
575.68	5147.00
576.13	5130.00
576.58	5177.00
577.03	5118.00
577.49	5132.00
577.94	5144.00
578.39	5161.00
578.84	5138.00
579.30	5140.00
579.75	5250.00
580.20	5206.00
580.65	5259.00
581.11	5243.00
581.56	5256.00
582.01	5263.00
582.46	5341.00
582.92	5268.00
583.37	5255.00
583.82	5308.00
584.27	5262.00
584.72	5204.00
585.18	5172.00
585.63	5255.00
586.08	5201.00
586.53	5309.00
586.98	5265.00
587.44	5231.00
587.89	5224.00
588.34	5122.00
588.79	5047.00
589.24	4971.00
589.70	4948.00
590.15	5043.00
590.60	5107.00
591.05	5182.00
591.50	5184.00
591.96	5191.00
592.41	5184.00
592.86	5180.00
593.31	5200.00
593.76	5196.00
594.21	5177.00
594.66	5124.00
595.12	5183.00
595.57	5178.00
596.02	5191.00
596.47	5206.00
596.92	5223.00
597.37	5211.00
597.82	5186.00
598.28	5164.00
598.73	5145.00
599.18	5184.00
599.63	5200.00
600.08	5196.00
600.53	5185.00
600.98	5150.00
601.43	5178.00
601.88	5163.00
602.34	5178.00
602.79	5221.00
603.24	5238.00
603.69	5280.00
604.14	5261.00
604.59	5330.00
605.04	5201.00
605.49	5250.00
605.94	5267.00
606.39	5312.00
606.84	5279.00
607.30	5272.00
607.75	5265.00
608.20	5308.00
608.65	5294.00
609.10	5186.00
609.55	5243.00
610.00	5200.00
610.45	5184.00
610.90	5234.00
611.35	5252.00
611.80	5259.00
612.25	5287.00
612.70	5231.00
613.15	5256.00
613.60	5236.00
614.05	5202.00
614.50	5248.00
614.95	5254.00
615.40	5239.00
615.85	5227.00
616.30	5132.00
616.75	5159.00
617.20	5145.00
617.65	5212.00
618.10	5267.00
618.55	5267.00
619.00	5223.00
619.45	5195.00
619.90	5283.00
620.35	5266.00
620.80	5332.00
621.25	5263.00
621.70	5261.00
622.15	5225.00
622.60	5221.00
623.05	5185.00
623.50	5259.00
623.95	5245.00
624.40	5243.00
624.85	5150.00
625.30	5165.00
625.75	5191.00
626.20	5191.00
626.65	5207.00
627.10	5197.00
627.55	5149.00
627.99	5124.00
628.44	5099.00
628.89	5161.00
629.34	5158.00
629.79	5182.00
630.24	5133.00
630.69	5206.00
631.14	5121.00
631.59	5126.00
632.04	5138.00
632.49	5197.00
632.94	5227.00
633.38	5244.00
633.83	5219.00
634.28	5208.00
634.73	5243.00
635.18	5279.00
635.63	5280.00
636.08	5238.00
636.53	5269.00
636.97	5257.00
637.42	5368.00
637.87	5300.00
638.32	5371.00
638.77	5319.00
639.22	5267.00
639.67	5340.00
640.11	5259.00
640.56	5309.00
641.01	5243.00
641.46	5275.00
641.91	5286.00
642.36	5254.00
642.81	5358.00
643.25	5270.00
643.70	5335.00
644.15	5293.00
644.60	5304.00
645.05	5288.00
645.49	5274.00
645.94	5238.00
646.39	5186.00
646.84	5253.00
647.29	5187.00
647.73	5301.00
648.18	5219.00
648.63	5189.00
649.08	5241.00
649.53	5159.00
649.97	5181.00
650.42	5175.00
650.87	5244.00
651.32	5245.00
651.77	5213.00
652.21	5182.00
652.66	5224.00
653.11	5275.00
653.56	5280.00
654.00	5272.00
654.45	5203.00
654.90	5252.00
655.35	5133.00
655.79	5007.00
656.24	4859.00
656.69	4865.00
657.14	4948.00
657.58	5127.00
658.03	5239.00
658.48	5311.00
658.92	5253.00
659.37	5248.00
659.82	5180.00
660.27	5267.00
660.71	5266.00
661.16	5265.00
661.61	5334.00
662.05	5243.00
662.50	5261.00
662.95	5319.00
663.39	5213.00
663.84	5259.00
664.29	5293.00
664.74	5281.00
665.18	5313.00
665.63	5319.00
666.08	5283.00
666.52	5280.00
666.97	5296.00
667.42	5222.00
667.86	5299.00
668.31	5264.00
668.76	5287.00
669.20	5306.00
669.65	5258.00
670.09	5293.00
670.54	5269.00
670.99	5207.00
671.43	5226.00
671.88	5281.00
672.33	5264.00
672.77	5326.00
673.22	5321.00
673.66	5296.00
674.11	5287.00
674.56	5308.00
675.00	5269.00
675.45	5229.00
675.90	5277.00
676.34	5308.00
676.79	5247.00
677.23	5243.00
677.68	5251.00
678.12	5306.00
678.57	5216.00
679.02	5293.00
679.46	5203.00
679.91	5258.00
680.35	5245.00
680.80	5271.00
681.25	5219.00
681.69	5245.00
682.14	5273.00
682.58	5224.00
683.03	5229.00
683.47	5278.00
683.92	5157.00
684.36	5278.00
684.81	5179.00
685.25	5194.00
685.70	5142.00
686.15	5139.00
686.59	4907.00
687.04	4559.00
687.48	4409.00
687.93	4526.00
688.37	4667.00
688.82	4720.00
689.26	4731.00
689.71	4736.00
690.15	4774.00
690.60	4820.00
691.04	4877.00
691.49	4911.00
691.93	4899.00
692.38	4956.00
692.82	4944.00
693.27	4950.00
693.71	4900.00
694.16	4895.00
694.60	4925.00
695.04	4947.00
695.49	4968.00
695.93	4978.00
696.38	4996.00
696.82	5069.00
697.27	5127.00
697.71	5022.00
698.16	5056.00
698.60	5054.00
699.04	4937.00
699.49	4974.00
699.93	4993.00
700.38	4929.00
700.82	4907.00
701.27	4931.00
701.71	4951.00
702.15	4962.00
702.60	4914.00
703.04	4928.00
703.49	4987.00
703.93	4999.00
704.37	5028.00
704.82	5059.00
705.26	5005.00
705.71	5011.00
706.15	4996.00
706.59	4989.00
707.04	5008.00
707.48	4964.00
707.93	5030.00
708.37	5047.00
708.81	5006.00
709.26	5005.00
709.70	5044.00
710.14	5087.00
710.59	5044.00
711.03	5006.00
711.47	5001.00
711.92	5002.00
712.36	5020.00
712.80	4993.00
713.25	5030.00
713.69	4993.00
714.13	5037.00
714.58	4990.00
715.02	4900.00
715.46	4880.00
715.91	4916.00
716.35	4853.00
716.79	4689.00
717.24	4550.00
717.68	4430.00
718.12	4421.00
718.57	4324.00
719.01	4291.00
719.45	4283.00
719.89	4248.00
720.34	4263.00
720.78	4380.00
721.22	4536.00
721.66	4624.00
722.11	4721.00
722.55	4715.00
722.99	4649.00
723.44	4489.00
723.88	4411.00
724.32	4391.00
724.76	4440.00
725.21	4356.00
725.65	4463.00
726.09	4427.00
726.53	4439.00
726.97	4524.00
727.42	4477.00
727.86	4404.00
728.30	4450.00
728.74	4477.00
729.19	4458.00
729.63	4421.00
730.07	4481.00
730.51	4533.00
730.95	4463.00
731.40	4503.00
731.84	4555.00
732.28	4639.00
732.72	4673.00
733.16	4650.00
733.61	4709.00
734.05	4831.00
734.49	4792.00
734.93	4746.00
735.37	4732.00
735.81	4682.00
736.26	4664.00
736.70	4730.00
737.14	4740.00
737.58	4757.00
738.02	4793.00
738.46	4733.00
738.90	4707.00
739.35	4717.00
739.79	4718.00
740.23	4807.00
740.67	4755.00
741.11	4750.00
741.55	4712.00
741.99	4768.00
742.44	4761.00
742.88	4743.00
743.32	4819.00
743.76	4791.00
744.20	4760.00
744.64	4762.00
745.08	4771.00
745.52	4841.00
745.96	4820.00
746.40	4762.00
746.84	4767.00
747.29	4771.00
747.73	4807.00
748.17	4741.00
748.61	4788.00
749.05	4795.00
749.49	4779.00
749.93	4782.00
750.37	4823.00
750.81	4814.00
751.25	4823.00
751.69	4791.00
752.13	4840.00
752.57	4768.00
753.01	4761.00
753.45	4762.00
753.89	4777.00
754.33	4790.00
754.77	4801.00
755.21	4783.00
755.65	4748.00
756.09	4774.00
756.53	4803.00
756.97	4790.00
757.41	4773.00
757.85	4754.00
758.29	4709.00
758.73	4703.00
759.17	4505.00
759.61	3945.00
760.05	3312.00
760.49	2984.00
760.93	2944.00
761.37	3113.00
761.81	3511.00
762.25	3662.00
762.69	3495.00
763.13	3365.00
763.57	3393.00
764.01	3437.00
764.45	3568.00
764.89	3712.00
765.33	3865.00
765.77	3993.00
766.21	4120.00
766.65	4277.00
767.09	4393.00
767.53	4482.00
767.96	4534.00
768.40	4601.00
768.84	4599.00
769.28	4607.00
769.72	4640.00
770.16	4604.00
770.60	4709.00
771.04	4654.00
771.48	4672.00
771.92	4663.00
772.35	4674.00
772.79	4657.00
773.23	4744.00
773.67	4752.00
774.11	4730.00
774.55	4636.00
774.99	4640.00
775.43	4647.00
775.86	4697.00
776.30	4682.00
776.74	4654.00
777.18	4683.00
777.62	4647.00
778.06	4671.00
778.50	4597.00
778.93	4662.00
779.37	4634.00
779.81	4614.00
780.25	4575.00
780.69	4615.00
781.12	4598.00
781.56	4672.00
782.00	4676.00
782.44	4643.00
782.88	4633.00
783.32	4616.00
783.75	4604.00
784.19	4612.00
784.63	4568.00
785.07	4549.00
785.50	4560.00
785.94	4568.00
786.38	4546.00
786.82	4539.00
787.26	4511.00
787.69	4534.00
788.13	4542.00
788.57	4554.00
789.01	4547.00
789.44	4498.00
789.88	4453.00
790.32	4461.00
790.76	4439.00
791.19	4434.00
791.63	4430.00
792.07	4406.00
792.51	4387.00
792.94	4366.00
793.38	4393.00
793.82	4421.00
794.25	4427.00
794.69	4386.00
795.13	4415.00
795.56	4437.00
796.00	4393.00
796.44	4358.00
796.88	4390.00
797.31	4368.00
797.75	4404.00
798.19	4397.00
798.62	4392.00
799.06	4364.00
799.50	4355.00
799.93	4392.00
800.37	4354.00
800.81	4329.00
801.24	4384.00
801.68	4334.00
802.12	4350.00
802.55	4326.00
802.99	4298.00
803.43	4300.00
803.86	4341.00
804.30	4275.00
804.73	4274.00
805.17	4312.00
805.61	4328.00
806.04	4352.00
806.48	4380.00
806.92	4324.00
807.35	4323.00
807.79	4308.00
808.22	4286.00
808.66	4279.00
809.10	4247.00
809.53	4253.00
809.97	4271.00
810.40	4269.00
810.84	4266.00
811.27	4196.00
811.71	4237.00
812.15	4184.00
812.58	4178.00
813.02	4134.00
813.45	4018.00
813.89	3994.00
814.32	3936.00
814.76	3942.00
815.19	3887.00
815.63	3855.00
816.07	3867.00
816.50	3781.00
816.94	3761.00
817.37	3907.00
817.81	3813.00
818.24	3839.00
818.68	3878.00
819.11	3915.00
819.55	3903.00
819.98	3874.00
820.42	3943.00
820.85	4049.00
821.29	3992.00
821.72	3963.00
822.16	3902.00
822.59	3714.00
823.03	3592.00
823.46	3701.00
823.90	3907.00
824.33	3972.00
824.77	4007.00
825.20	4068.00
825.63	3986.00
826.07	3956.00
826.50	3976.00
826.94	4044.00
827.37	3925.00
827.81	3868.00
828.24	3885.00
828.68	3889.00
829.11	3882.00
829.54	3893.00
829.98	3914.00
830.41	3926.00
830.85	3926.00
831.28	3960.00
831.71	3944.00
832.15	3984.00
832.58	3965.00
833.02	3955.00
833.45	3925.00
833.88	3932.00
834.32	3993.00
834.75	4021.00
835.19	4019.00
835.62	4000.00
836.05	3973.00
836.49	3985.00
836.92	4035.00
837.35	4041.00
837.79	4098.00
838.22	4054.00
838.66	4001.00
839.09	4059.00
839.52	4111.00
839.96	4081.00
840.39	4081.00
840.82	4019.00
841.26	4034.00
841.69	4036.00
842.12	4062.00
842.56	4067.00
842.99	4059.00
843.42	4021.00
843.85	4000.00
844.29	4069.00
844.72	4082.00
845.15	4117.00
845.59	4125.00
846.02	4112.00
846.45	4111.00
846.88	4066.00
847.32	4038.00
847.75	4086.00
848.18	4028.00
848.62	3996.00
849.05	4040.00
849.48	3929.00
849.91	3907.00
850.35	3978.00
850.78	4054.00
851.21	4021.00
851.64	3983.00
852.08	4042.00
852.51	4024.00
852.94	4032.00
853.37	3971.00
853.80	3821.00
854.24	3738.00
854.67	3814.00
855.10	3915.00
855.53	3965.00
855.97	4006.00
856.40	3976.00
856.83	3983.00
857.26	4015.00
857.69	4044.00
858.13	4010.00
858.56	4024.00
858.99	4014.00
859.42	4030.00
859.85	3991.00
860.28	4011.00
860.72	4042.00
861.15	3997.00
861.58	4010.00
862.01	4017.00
862.44	4032.00
862.87	3966.00
863.30	4013.00
863.74	3966.00
864.17	4013.00
864.60	3994.00
865.03	3975.00
865.46	3931.00
865.89	3783.00
866.32	3827.00
866.75	3922.00
867.19	3961.00
867.62	3960.00
868.05	4007.00
868.48	3987.00
868.91	3926.00
869.34	3993.00
869.77	3923.00
870.20	3948.00
870.63	3931.00
871.06	3936.00
871.49	3943.00
871.93	3945.00
872.36	3961.00
872.79	3945.00
873.22	3954.00
873.65	3979.00
874.08	3942.00
874.51	3905.00
874.94	3907.00
875.37	3921.00
875.80	3984.00
876.23	3937.00
876.66	3910.00
877.09	3916.00
877.52	3927.00
877.95	3925.00
878.38	3929.00
878.81	3898.00
879.24	3887.00
879.67	3875.00
880.10	3887.00
880.53	3874.00
880.96	3910.00
881.39	3926.00
881.82	3922.00
882.25	3902.00
882.68	3911.00
883.11	3942.00
883.54	3922.00
883.97	3977.00
884.40	3940.00
884.83	3900.00
885.26	3868.00
885.69	3874.00
886.12	3855.00
886.55	3863.00
886.98	3818.00
887.40	3896.00
887.83	3854.00
888.26	3920.00
888.69	3910.00
889.12	3904.00
889.55	3883.00
889.98	3841.00
890.41	3904.00
890.84	3884.00
891.27	3902.00
891.70	3847.00
892.12	3865.00
892.55	3844.00
892.98	3778.00
893.41	3775.00
893.84	3813.00
894.27	3701.00
894.70	3671.00
895.13	3628.00
895.55	3645.00
895.98	3588.00
896.41	3554.00
896.84	3562.00
897.27	3570.00
897.70	3563.00
898.13	3569.00
898.55	3398.00
898.98	3444.00
899.41	3570.00
899.84	3514.00
900.27	3441.00
900.70	3468.00
901.12	3476.00
901.55	3480.00
901.98	3467.00
902.41	3459.00
902.84	3598.00
903.26	3650.00
903.69	3654.00
904.12	3684.00
904.55	3667.00
904.97	3637.00
905.40	3667.00
905.83	3547.00
906.26	3535.00
906.69	3463.00
907.11	3474.00
907.54	3484.00
907.97	3444.00
908.40	3423.00
908.82	3464.00
909.25	3402.00
909.68	3435.00
910.10	3431.00
910.53	3431.00
910.96	3485.00
911.39	3470.00
911.81	3483.00
912.24	3474.00
912.67	3384.00
913.09	3335.00
913.52	3407.00
913.95	3476.00
914.38	3462.00
914.80	3324.00
915.23	3339.00
915.66	3423.00
916.08	3498.00
916.51	3443.00
916.94	3354.00
917.36	3370.00
917.79	3420.00
918.22	3436.00
918.64	3501.00
919.07	3458.00
919.50	3520.00
919.92	3591.00
920.35	3526.00
920.78	3474.00
921.20	3461.00
921.63	3468.00
922.05	3483.00
922.48	3490.00
922.91	3433.00
923.33	3426.00
923.76	3430.00
924.18	3440.00
924.61	3472.00
925.04	3441.00
925.46	3427.00
925.89	3423.00
926.31	3439.00
926.74	3389.00
927.17	3286.00
927.59	3210.00
928.02	3176.00
928.44	3180.00
928.87	3142.00
929.29	3095.00
929.72	3082.00
930.15	3017.00
930.57	3011.00
931.00	2946.00
931.42	2892.00
931.85	2853.00
932.27	2870.00
932.70	2845.00
933.12	2793.00
933.55	2759.00
933.97	2773.00
934.40	2857.00
934.82	2824.00
935.25	2779.00
935.67	2806.00
936.10	2786.00
936.52	2777.00
936.95	2763.00
937.37	2769.00
937.80	2796.00
938.22	2866.00
938.65	2933.00
939.07	2935.00
939.50	2886.00
939.92	2862.00
940.35	2839.00
940.77	2832.00
941.19	2837.00
941.62	2839.00
942.04	2781.00
942.47	2779.00
942.89	2827.00
943.32	2774.00
943.74	2752.00
944.16	2798.00
944.59	2817.00
945.01	2761.00
945.44	2776.00
945.86	2804.00
946.29	2816.00
946.71	2826.00
947.13	2825.00
947.56	2794.00
947.98	2839.00
948.40	2878.00
948.83	2821.00
949.25	2777.00
949.68	2832.00
950.10	2907.00
950.52	2890.00
950.95	2859.00
951.37	2809.00
951.79	2806.00
952.22	2844.00
952.64	2893.00
953.06	2919.00
953.49	2896.00
953.91	2857.00
954.33	2885.00
954.76	2876.00
955.18	2894.00
955.60	2887.00
956.03	2879.00
956.45	2951.00
956.87	3004.00
957.30	2934.00
957.72	2945.00
958.14	2871.00
958.56	2868.00
958.99	2920.00
959.41	2957.00
959.83	2963.00
960.26	2992.00
960.68	3025.00
961.10	2982.00
961.52	2959.00
961.95	3015.00
962.37	3056.00
962.79	3022.00
963.21	3004.00
963.64	3028.00
964.06	3044.00
964.48	3069.00
964.90	3063.00
965.32	3041.00
965.75	3049.00
966.17	3076.00
966.59	3182.00
967.01	3180.00
967.44	3139.00
967.86	3182.00
968.28	3186.00
968.70	3176.00
969.12	3186.00
969.54	3178.00
969.97	3209.00
970.39	3216.00
970.81	3195.00
971.23	3191.00
971.65	3170.00
972.07	3175.00
972.50	3157.00
972.92	3121.00
973.34	3147.00
973.76	3156.00
974.18	3130.00
974.60	3122.00
975.02	3096.00
975.45	3111.00
975.87	3178.00
976.29	3156.00
976.71	3170.00
977.13	3137.00
977.55	3178.00
977.97	3141.00
978.39	3143.00
978.81	3163.00
979.24	3159.00
979.66	3187.00
980.08	3175.00
980.50	3215.00
980.92	3175.00
981.34	3206.00
981.76	3205.00
982.18	3191.00
982.60	3219.00
983.02	3235.00
983.44	3190.00
983.86	3209.00
984.28	3203.00
984.70	3203.00
985.12	3202.00
985.54	3207.00
985.96	3177.00
986.38	3201.00
986.80	3193.00
987.23	3238.00
987.65	3208.00
988.07	3174.00
988.49	3208.00
988.91	3194.00
989.33	3188.00
989.74	3213.00
990.16	3200.00
990.58	3235.00
991.00	3198.00
991.42	3189.00
991.84	3169.00
992.26	3198.00
992.68	3156.00
993.10	3173.00
993.52	3193.00
993.94	3154.00
994.36	3162.00
994.78	3152.00
995.20	3172.00
995.62	3173.00
996.04	3189.00
996.46	3170.00
996.88	3182.00
997.30	3187.00
997.71	3188.00
998.13	3158.00
998.55	3178.00
998.97	3151.00
999.39	3214.00
999.81	3190.00
1000.23	3202.00
1000.65	3210.00
1001.07	3178.00
1001.49	3191.00
1001.90	3162.00
1002.32	3170.00
1002.74	3143.00
1003.16	3131.00
1003.58	3146.00
1004.00	3148.00
1004.42	3175.00
1004.83	3145.00
1005.25	3152.00
1005.67	3147.00
1006.09	3152.00
1006.51	3162.00
1006.92	3146.00
1007.34	3126.00
1007.76	3151.00
1008.18	3139.00
1008.60	3128.00
1009.02	3143.00
1009.43	3149.00
1009.85	3146.00
1010.27	3124.00
1010.69	3119.00
1011.10	3131.00
1011.52	3093.00
1011.94	3119.00
1012.36	3117.00
1012.78	3109.00
1013.19	3094.00
1013.61	3115.00
1014.03	3074.00
1014.45	3098.00
1014.86	3094.00
1015.28	3093.00
1015.70	3065.00
1016.12	3085.00
1016.53	3062.00
1016.95	3085.00
1017.37	3063.00
1017.78	3048.00
1018.20	3029.00
1018.62	3054.00
1019.03	3041.00
1019.45	3026.00
1019.87	3024.00
1020.29	3020.00
1020.70	3026.00
1021.12	3027.00
1021.54	3049.00
1021.95	3052.00
1022.37	3017.00
1022.79	3017.00
1023.20	3010.00
1023.62	3002.00
1024.04	2998.00
1024.45	2990.00
1024.87	2983.00
1025.28	2984.00
1025.70	3010.00
1026.12	2981.00
1026.53	2973.00
1026.95	2960.00
1027.37	2963.00
1027.78	2959.00
1028.20	2960.00
1028.61	2948.00
1029.03	2973.00
1029.45	2953.00
1029.86	2943.00
1030.28	2954.00
1030.69	2957.00
1031.11	2927.00
1031.53	2935.00
1031.94	2902.00
1032.36	2922.00
1032.77	2910.00
1033.19	2910.00
1033.60	2920.00
1034.02	2909.00
1034.43	2910.00
1034.85	2885.00
1035.27	2908.00
1035.68	2887.00
1036.10	2918.00
1036.51	2883.00
1036.93	2886.00
1037.34	2871.00
1037.76	2870.00
1038.17	2866.00
1038.59	2890.00
1039.00	2886.00
1039.42	2858.00
1039.83	2864.00
1040.25	2855.00
1040.66	2849.00
1041.08	2847.00
1041.49	2847.00
1041.91	2847.00
1042.32	2854.00
1042.73	2835.00
1043.15	2833.00
1043.56	2814.00
1043.98	2836.00
1044.39	2818.00
1044.81	2810.00
1045.22	2827.00
1045.64	2820.00
1046.05	2803.00
1046.46	2810.00
1046.88	2811.00
1047.29	2807.00
1047.71	2793.00
1048.12	2801.00
1048.53	2789.00
1048.95	2801.00
1049.36	2797.00
1049.78	2781.00
1050.19	2785.00
1050.60	2799.00
1051.02	2794.00
1051.43	2780.00
1051.85	2774.00
1052.26	2774.00
1052.67	2762.00
1053.09	2766.00
1053.50	2767.00
1053.91	2767.00
1054.33	2768.00
1054.74	2746.00
1055.15	2745.00
1055.57	2758.00
1055.98	2742.00
1056.39	2740.00
1056.81	2744.00
1057.22	2747.00
1057.63	2742.00
1058.05	2736.00
1058.46	2733.00
1058.87	2739.00
1059.28	2735.00
1059.70	2742.00
1060.11	2722.00
1060.52	2726.00
1060.94	2730.00
1061.35	2721.00
1061.76	2724.00
1062.17	2704.00
1062.59	2707.00
1063.00	2723.00
1063.41	2709.00
1063.82	2716.00
1064.24	2695.00
1064.65	2699.00
1065.06	2703.00
1065.47	2699.00
1065.89	2712.00
1066.30	2695.00
1066.71	2695.00
1067.12	2686.00
1067.53	2689.00
1067.95	2690.00
1068.36	2692.00
1068.77	2700.00
1069.18	2680.00
1069.59	2683.00
1070.00	2686.00
1070.42	2683.00
1070.83	2682.00
1071.24	2681.00
1071.65	2672.00
1072.06	2688.00
1072.47	2667.00
1072.89	2667.00
1073.30	2650.00
1073.71	2677.00
1074.12	2652.00
1074.53	2671.00
1074.94	2668.00
1075.35	2665.00
1075.77	2664.00
1076.18	2666.00
1076.59	2667.00
1077.00	2661.00
1077.41	2665.00
1077.82	2660.00
1078.23	2651.00
1078.64	2659.00
1079.05	2654.00
1079.46	2653.00
1079.87	2655.00
1080.29	2662.00
1080.70	2644.00
1081.11	2646.00
1081.52	2641.00
1081.93	2658.00
1082.34	2639.00
1082.75	2651.00
1083.16	2652.00
1083.57	2643.00
1083.98	2641.00
1084.39	2632.00
1084.80	2633.00
1085.21	2638.00
1085.62	2636.00
1086.03	2656.00
1086.44	2626.00
1086.85	2624.00
1087.26	2630.00
1087.67	2633.00
1088.08	2633.00
1088.49	2630.00
1088.90	2620.00
1089.31	2622.00
1089.72	2631.00
1090.13	2632.00
1090.54	2626.00
1090.95	2620.00
1091.36	2628.00
1091.77	2625.00
1092.18	2618.00
1092.59	2619.00
1093.00	2613.00
1093.40	2612.00
1093.81	2603.00
1094.22	2622.00
1094.63	2615.00
1095.04	2606.00
1095.45	2611.00
1095.86	2613.00
1096.27	2611.00
1096.68	2604.00
1097.09	2604.00
1097.50	2608.00
1097.90	2602.00
1098.31	2601.00
1098.72	2605.00
1099.13	2603.00
1099.54	2602.00
1099.95	2605.00
1100.36	2597.00
1100.76	2596.00
1101.17	2596.00
1101.58	2601.00
1101.99	2597.00
1102.40	2602.00
1102.81	2594.00
1103.22	2592.00
1103.62	2587.00
1104.03	2593.00
1104.44	2590.00
1104.85	2595.00
1105.26	2589.00
1105.66	2586.00
1106.07	2592.00
1106.48	2593.00
1106.89	2592.00
1107.30	2592.00
1107.70	2573.00
1108.11	2588.00
1108.52	2585.00
1108.93	2591.00
1109.33	2584.00
1109.74	2583.00
1110.15	2585.00
1110.56	2576.00
1110.96	2587.00
1111.37	2582.00
1111.78	2583.00
1112.19	2583.00
1112.59	2584.00
1113.00	2583.00
1113.41	2578.00
1113.81	2580.00
1114.22	2577.00
1114.63	2561.00
1115.03	2555.00
1115.44	2559.00
1115.85	2560.00
>>>>>End Processed Spectral Data<<<<<
