SpectraSuite Data File
++++++++++++++++++++++++++++++++++++
Date: Thu Aug 05 10:45:31 EEST 2021
User: CanSEE
Dark Spectrum Present: No
Reference Spectrum Present: No
Number of Sampled Component Spectra: 1
Spectrometers: MAYP112785
Integration Time (usec): 10000 (MAYP112785)
Spectra Averaged: 1 (MAYP112785)
Boxcar Smoothing: 0 (MAYP112785)
Correct for Electrical Dark: No (MAYP112785)
Strobe/Lamp Enabled: No (MAYP112785)
Correct for Detector Non-linearity: No (MAYP112785)
Correct for Stray Light: No (MAYP112785)
Number of Pixels in Processed Spectrum: 2068
>>>>>Begin Processed Spectral Data<<<<<
198.35	3483.00
198.82	2488.00
199.30	2587.00
199.77	2571.00
200.24	2611.00
200.71	2596.00
201.18	2598.00
201.65	2613.00
202.13	2606.00
202.60	2609.00
203.07	2608.00
203.54	2610.00
204.01	2602.00
204.48	2604.00
204.96	2607.00
205.43	2608.00
205.90	2606.00
206.37	2593.00
206.84	2606.00
207.31	2604.00
207.78	2603.00
208.26	2602.00
208.73	2605.00
209.20	2613.00
209.67	2606.00
210.14	2601.00
210.61	2613.00
211.08	2606.00
211.56	2607.00
212.03	2610.00
212.50	2610.00
212.97	2604.00
213.44	2607.00
213.91	2603.00
214.38	2614.00
214.85	2606.00
215.33	2598.00
215.80	2600.00
216.27	2605.00
216.74	2596.00
217.21	2603.00
217.68	2608.00
218.15	2610.00
218.62	2611.00
219.09	2598.00
219.57	2612.00
220.04	2602.00
220.51	2601.00
220.98	2607.00
221.45	2611.00
221.92	2610.00
222.39	2603.00
222.86	2611.00
223.33	2604.00
223.80	2606.00
224.27	2602.00
224.74	2604.00
225.22	2607.00
225.69	2608.00
226.16	2607.00
226.63	2603.00
227.10	2610.00
227.57	2601.00
228.04	2604.00
228.51	2617.00
228.98	2609.00
229.45	2600.00
229.92	2610.00
230.39	2607.00
230.86	2610.00
231.33	2606.00
231.80	2610.00
232.27	2610.00
232.75	2611.00
233.22	2599.00
233.69	2611.00
234.16	2604.00
234.63	2608.00
235.10	2605.00
235.57	2600.00
236.04	2611.00
236.51	2603.00
236.98	2603.00
237.45	2611.00
237.92	2605.00
238.39	2599.00
238.86	2615.00
239.33	2665.00
239.80	2600.00
240.27	2612.00
240.74	2605.00
241.21	2611.00
241.68	2602.00
242.15	2607.00
242.62	2609.00
243.09	2607.00
243.56	2600.00
244.03	2605.00
244.50	2608.00
244.97	2612.00
245.44	2621.00
245.91	2599.00
246.38	2600.00
246.85	2600.00
247.32	2613.00
247.79	2612.00
248.26	2605.00
248.73	2601.00
249.20	2609.00
249.67	2611.00
250.14	2607.00
250.61	2607.00
251.08	2614.00
251.55	2603.00
252.02	2605.00
252.49	2612.00
252.96	2610.00
253.43	2598.00
253.90	2609.00
254.37	2610.00
254.84	2605.00
255.31	2603.00
255.77	2607.00
256.24	2601.00
256.71	2608.00
257.18	2609.00
257.65	2607.00
258.12	2600.00
258.59	2611.00
259.06	2609.00
259.53	2606.00
260.00	2617.00
260.47	2599.00
260.94	2619.00
261.41	2610.00
261.88	2609.00
262.35	2607.00
262.81	2616.00
263.28	2606.00
263.75	2611.00
264.22	2603.00
264.69	2607.00
265.16	2610.00
265.63	2600.00
266.10	2605.00
266.57	2609.00
267.04	2613.00
267.51	2606.00
267.97	2605.00
268.44	2609.00
268.91	2614.00
269.38	2604.00
269.85	2612.00
270.32	2603.00
270.79	2608.00
271.26	2604.00
271.73	2606.00
272.19	2609.00
272.66	2602.00
273.13	2610.00
273.60	2612.00
274.07	2617.00
274.54	2606.00
275.01	2608.00
275.48	2607.00
275.94	2606.00
276.41	2624.00
276.88	2599.00
277.35	2603.00
277.82	2605.00
278.29	2609.00
278.76	2602.00
279.22	2607.00
279.69	2605.00
280.16	2610.00
280.63	2607.00
281.10	2604.00
281.57	2608.00
282.04	2600.00
282.50	2614.00
282.97	2609.00
283.44	2601.00
283.91	2604.00
284.38	2609.00
284.85	2609.00
285.31	2610.00
285.78	2602.00
286.25	2598.00
286.72	2607.00
287.19	2607.00
287.65	2606.00
288.12	2605.00
288.59	2615.00
289.06	2603.00
289.53	2611.00
289.99	2606.00
290.46	2612.00
290.93	2609.00
291.40	2599.00
291.87	2609.00
292.33	2610.00
292.80	2602.00
293.27	2610.00
293.74	2604.00
294.21	2598.00
294.67	2597.00
295.14	2608.00
295.61	2605.00
296.08	2606.00
296.54	2609.00
297.01	2605.00
297.48	2613.00
297.95	2610.00
298.42	2609.00
298.88	2602.00
299.35	2613.00
299.82	2617.00
300.29	2600.00
300.75	2604.00
301.22	2607.00
301.69	2610.00
302.16	2614.00
302.62	2607.00
303.09	2611.00
303.56	2609.00
304.03	2602.00
304.49	2610.00
304.96	2610.00
305.43	2615.00
305.90	2606.00
306.36	2611.00
306.83	2625.00
307.30	2615.00
307.76	2620.00
308.23	2627.00
308.70	2627.00
309.17	2620.00
309.63	2628.00
310.10	2635.00
310.57	2636.00
311.03	2643.00
311.50	2644.00
311.97	2653.00
312.44	2652.00
312.90	2648.00
313.37	2666.00
313.84	2663.00
314.30	2663.00
314.77	2671.00
315.24	2654.00
315.70	2677.00
316.17	2657.00
316.64	2678.00
317.10	2682.00
317.57	2690.00
318.04	2692.00
318.50	2686.00
318.97	2702.00
319.44	2691.00
319.90	2704.00
320.37	2715.00
320.84	2721.00
321.30	2720.00
321.77	2700.00
322.24	2721.00
322.70	2711.00
323.17	2714.00
323.64	2736.00
324.10	2745.00
324.57	2755.00
325.04	2765.00
325.50	2775.00
325.97	2787.00
326.44	2802.00
326.90	2800.00
327.37	2803.00
327.84	2797.00
328.30	2800.00
328.77	2801.00
329.23	2811.00
329.70	2846.00
330.17	2845.00
330.63	2842.00
331.10	2824.00
331.56	2832.00
332.03	2836.00
332.50	2851.00
332.96	2823.00
333.43	2839.00
333.90	2819.00
334.36	2827.00
334.83	2847.00
335.29	2835.00
335.76	2832.00
336.22	2835.00
336.69	2817.00
337.16	2808.00
337.62	2821.00
338.09	2837.00
338.55	2844.00
339.02	2860.00
339.49	2887.00
339.95	2882.00
340.42	2875.00
340.88	2862.00
341.35	2881.00
341.81	2886.00
342.28	2882.00
342.75	2885.00
343.21	2899.00
343.68	2891.00
344.14	2881.00
344.61	2852.00
345.07	2856.00
345.54	2894.00
346.00	2911.00
346.47	2899.00
346.93	2890.00
347.40	2934.00
347.87	2927.00
348.33	2891.00
348.80	2913.00
349.26	2918.00
349.73	2912.00
350.19	2937.00
350.66	2956.00
351.12	2957.00
351.59	2925.00
352.05	2941.00
352.52	2934.00
352.98	2941.00
353.45	2964.00
353.91	2981.00
354.38	2998.00
354.84	3001.00
355.31	2990.00
355.77	2961.00
356.24	2933.00
356.70	2954.00
357.17	2884.00
357.63	2892.00
358.10	2889.00
358.56	2917.00
359.03	2913.00
359.49	2969.00
359.96	2980.00
360.42	2981.00
360.89	2980.00
361.35	2957.00
361.82	2955.00
362.28	3000.00
362.75	3002.00
363.21	2995.00
363.67	2983.00
364.14	3013.00
364.60	3019.00
365.07	3015.00
365.53	3039.00
366.00	3095.00
366.46	3117.00
366.93	3101.00
367.39	3096.00
367.86	3079.00
368.32	3057.00
368.78	3089.00
369.25	3065.00
369.71	3095.00
370.18	3126.00
370.64	3109.00
371.11	3085.00
371.57	3093.00
372.03	3082.00
372.50	3064.00
372.96	3050.00
373.43	3027.00
373.89	3005.00
374.35	3026.00
374.82	3039.00
375.28	3044.00
375.75	3094.00
376.21	3116.00
376.67	3113.00
377.14	3151.00
377.60	3163.00
378.07	3228.00
378.53	3230.00
378.99	3202.00
379.46	3158.00
379.92	3153.00
380.39	3151.00
380.85	3186.00
381.31	3149.00
381.78	3112.00
382.24	3045.00
382.70	3017.00
383.17	3026.00
383.63	3016.00
384.09	3032.00
384.56	3092.00
385.02	3179.00
385.48	3167.00
385.95	3115.00
386.41	3139.00
386.88	3157.00
387.34	3160.00
387.80	3167.00
388.27	3190.00
388.73	3192.00
389.19	3230.00
389.66	3268.00
390.12	3323.00
390.58	3327.00
391.05	3325.00
391.51	3316.00
391.97	3286.00
392.43	3244.00
392.90	3171.00
393.36	3057.00
393.82	3036.00
394.29	3201.00
394.75	3266.00
395.21	3309.00
395.68	3307.00
396.14	3332.00
396.60	3258.00
397.07	3184.00
397.53	3236.00
397.99	3395.00
398.45	3537.00
398.92	3646.00
399.38	3671.00
399.84	3722.00
400.31	3717.00
400.77	3759.00
401.23	3768.00
401.69	3799.00
402.16	3775.00
402.62	3801.00
403.08	3792.00
403.54	3781.00
404.01	3784.00
404.47	3764.00
404.93	3725.00
405.39	3724.00
405.86	3796.00
406.32	3736.00
406.78	3765.00
407.24	3800.00
407.71	3836.00
408.17	3812.00
408.63	3863.00
409.09	3905.00
409.56	3935.00
410.02	3852.00
410.48	3822.00
410.94	3806.00
411.40	3926.00
411.87	3989.00
412.33	4004.00
412.79	3967.00
413.25	3954.00
413.71	3954.00
414.18	3975.00
414.64	4048.00
415.10	4009.00
415.56	4016.00
416.02	4024.00
416.49	4038.00
416.95	4067.00
417.41	3997.00
417.87	4007.00
418.33	3987.00
418.80	3984.00
419.26	4017.00
419.72	4032.00
420.18	4023.00
420.64	4074.00
421.10	4104.00
421.57	4101.00
422.03	4078.00
422.49	4078.00
422.95	4028.00
423.41	4048.00
423.87	4054.00
424.34	4098.00
424.80	4073.00
425.26	4111.00
425.72	4049.00
426.18	4047.00
426.64	4097.00
427.10	4085.00
427.57	3981.00
428.03	3999.00
428.49	4019.00
428.95	3947.00
429.41	3927.00
429.87	3906.00
430.33	3852.00
430.79	3824.00
431.26	3889.00
431.72	4036.00
432.18	4231.00
432.64	4191.00
433.10	4137.00
433.56	4179.00
434.02	4209.00
434.48	4142.00
434.94	4203.00
435.40	4289.00
435.87	4337.00
436.33	4331.00
436.79	4421.00
437.25	4319.00
437.71	4260.00
438.17	4287.00
438.63	4233.00
439.09	4241.00
439.55	4351.00
440.01	4351.00
440.47	4406.00
440.93	4411.00
441.39	4445.00
441.85	4521.00
442.32	4559.00
442.78	4540.00
443.24	4605.00
443.70	4585.00
444.16	4580.00
444.62	4577.00
445.08	4563.00
445.54	4593.00
446.00	4528.00
446.46	4583.00
446.92	4658.00
447.38	4662.00
447.84	4749.00
448.30	4712.00
448.76	4758.00
449.22	4786.00
449.68	4781.00
450.14	4792.00
450.60	4855.00
451.06	4885.00
451.52	4856.00
451.98	4820.00
452.44	4800.00
452.90	4823.00
453.36	4723.00
453.82	4739.00
454.28	4831.00
454.74	4897.00
455.20	4797.00
455.66	4848.00
456.12	4889.00
456.58	4974.00
457.04	4929.00
457.50	4863.00
457.96	4931.00
458.42	4872.00
458.88	4905.00
459.34	4886.00
459.80	4911.00
460.26	4908.00
460.72	4962.00
461.18	5013.00
461.64	5021.00
462.10	4995.00
462.55	5041.00
463.01	5035.00
463.47	5012.00
463.93	5003.00
464.39	4975.00
464.85	4996.00
465.31	4976.00
465.77	4964.00
466.23	5060.00
466.69	4976.00
467.15	4963.00
467.61	4955.00
468.07	5005.00
468.52	5015.00
468.98	5040.00
469.44	5047.00
469.90	4970.00
470.36	5030.00
470.82	5024.00
471.28	5071.00
471.74	5130.00
472.20	5103.00
472.66	5164.00
473.11	5134.00
473.57	5058.00
474.03	5099.00
474.49	5169.00
474.95	5133.00
475.41	5145.00
475.87	5129.00
476.33	5136.00
476.78	5153.00
477.24	5182.00
477.70	5187.00
478.16	5199.00
478.62	5277.00
479.08	5223.00
479.54	5189.00
479.99	5220.00
480.45	5325.00
480.91	5266.00
481.37	5272.00
481.83	5231.00
482.29	5311.00
482.74	5308.00
483.20	5226.00
483.66	5274.00
484.12	5246.00
484.58	5206.00
485.04	5094.00
485.49	5005.00
485.95	4940.00
486.41	4984.00
486.87	4881.00
487.33	5069.00
487.78	5161.00
488.24	5194.00
488.70	5174.00
489.16	5247.00
489.62	5239.00
490.07	5301.00
490.53	5306.00
490.99	5266.00
491.45	5260.00
491.90	5264.00
492.36	5266.00
492.82	5259.00
493.28	5335.00
493.74	5298.00
494.19	5308.00
494.65	5287.00
495.11	5367.00
495.57	5346.00
496.02	5355.00
496.48	5359.00
496.94	5364.00
497.40	5367.00
497.85	5388.00
498.31	5381.00
498.77	5315.00
499.23	5267.00
499.68	5335.00
500.14	5267.00
500.60	5253.00
501.06	5231.00
501.51	5229.00
501.97	5215.00
502.43	5314.00
502.88	5270.00
503.34	5352.00
503.80	5303.00
504.26	5311.00
504.71	5285.00
505.17	5382.00
505.63	5412.00
506.08	5480.00
506.54	5375.00
507.00	5426.00
507.45	5339.00
507.91	5362.00
508.37	5355.00
508.82	5414.00
509.28	5389.00
509.74	5369.00
510.19	5438.00
510.65	5427.00
511.11	5464.00
511.56	5455.00
512.02	5493.00
512.48	5438.00
512.93	5457.00
513.39	5404.00
513.85	5425.00
514.30	5409.00
514.76	5443.00
515.22	5386.00
515.67	5332.00
516.13	5277.00
516.59	5277.00
517.04	5213.00
517.50	5159.00
517.95	5151.00
518.41	5278.00
518.87	5311.00
519.32	5303.00
519.78	5340.00
520.24	5408.00
520.69	5487.00
521.15	5497.00
521.60	5509.00
522.06	5530.00
522.52	5493.00
522.97	5529.00
523.43	5532.00
523.88	5585.00
524.34	5565.00
524.80	5653.00
525.25	5627.00
525.71	5559.00
526.16	5479.00
526.62	5461.00
527.07	5405.00
527.53	5461.00
527.99	5551.00
528.44	5614.00
528.90	5647.00
529.35	5652.00
529.81	5687.00
530.26	5683.00
530.72	5682.00
531.17	5679.00
531.63	5668.00
532.09	5630.00
532.54	5594.00
533.00	5603.00
533.45	5572.00
533.91	5674.00
534.36	5677.00
534.82	5674.00
535.27	5756.00
535.73	5750.00
536.18	5726.00
536.64	5716.00
537.09	5646.00
537.55	5652.00
538.00	5735.00
538.46	5704.00
538.91	5624.00
539.37	5685.00
539.82	5638.00
540.28	5595.00
540.73	5638.00
541.19	5608.00
541.64	5625.00
542.10	5650.00
542.55	5651.00
543.01	5705.00
543.46	5713.00
543.92	5718.00
544.37	5698.00
544.83	5758.00
545.28	5720.00
545.74	5683.00
546.19	5707.00
546.64	5780.00
547.10	5711.00
547.55	5719.00
548.01	5734.00
548.46	5767.00
548.92	5737.00
549.37	5714.00
549.83	5735.00
550.28	5765.00
550.73	5811.00
551.19	5738.00
551.64	5772.00
552.10	5815.00
552.55	5801.00
553.00	5786.00
553.46	5783.00
553.91	5845.00
554.37	5815.00
554.82	5857.00
555.28	5814.00
555.73	5860.00
556.18	5765.00
556.64	5805.00
557.09	5754.00
557.54	5744.00
558.00	5702.00
558.45	5739.00
558.91	5772.00
559.36	5697.00
559.81	5702.00
560.27	5682.00
560.72	5753.00
561.17	5784.00
561.63	5743.00
562.08	5764.00
562.54	5758.00
562.99	5833.00
563.44	5837.00
563.90	5777.00
564.35	5799.00
564.80	5733.00
565.26	5777.00
565.71	5705.00
566.16	5725.00
566.62	5720.00
567.07	5736.00
567.52	5806.00
567.98	5807.00
568.43	5809.00
568.88	5738.00
569.34	5748.00
569.79	5742.00
570.24	5760.00
570.69	5676.00
571.15	5647.00
571.60	5690.00
572.05	5825.00
572.51	5805.00
572.96	5811.00
573.41	5761.00
573.86	5801.00
574.32	5808.00
574.77	5834.00
575.22	5756.00
575.68	5765.00
576.13	5703.00
576.58	5747.00
577.03	5786.00
577.49	5759.00
577.94	5764.00
578.39	5762.00
578.84	5762.00
579.30	5738.00
579.75	5849.00
580.20	5806.00
580.65	5831.00
581.11	5909.00
581.56	5868.00
582.01	5944.00
582.46	5859.00
582.92	5958.00
583.37	5958.00
583.82	5919.00
584.27	5940.00
584.72	5911.00
585.18	5847.00
585.63	5868.00
586.08	5873.00
586.53	5866.00
586.98	5862.00
587.44	5930.00
587.89	5819.00
588.34	5735.00
588.79	5628.00
589.24	5533.00
589.70	5479.00
590.15	5667.00
590.60	5752.00
591.05	5837.00
591.50	5745.00
591.96	5740.00
592.41	5731.00
592.86	5788.00
593.31	5822.00
593.76	5808.00
594.21	5747.00
594.66	5708.00
595.12	5795.00
595.57	5779.00
596.02	5812.00
596.47	5852.00
596.92	5809.00
597.37	5788.00
597.82	5823.00
598.28	5777.00
598.73	5852.00
599.18	5783.00
599.63	5796.00
600.08	5847.00
600.53	5859.00
600.98	5803.00
601.43	5807.00
601.88	5792.00
602.34	5752.00
602.79	5835.00
603.24	5846.00
603.69	5851.00
604.14	5882.00
604.59	5919.00
605.04	5866.00
605.49	5915.00
605.94	5943.00
606.39	5875.00
606.84	5932.00
607.30	5920.00
607.75	5861.00
608.20	5885.00
608.65	5903.00
609.10	5951.00
609.55	5855.00
610.00	5883.00
610.45	5806.00
610.90	5873.00
611.35	5874.00
611.80	5912.00
612.25	5844.00
612.70	5844.00
613.15	5809.00
613.60	5835.00
614.05	5808.00
614.50	5866.00
614.95	5872.00
615.40	5844.00
615.85	5817.00
616.30	5764.00
616.75	5719.00
617.20	5760.00
617.65	5809.00
618.10	5888.00
618.55	5903.00
619.00	5904.00
619.45	5860.00
619.90	5937.00
620.35	5892.00
620.80	5946.00
621.25	5925.00
621.70	5854.00
622.15	5871.00
622.60	5856.00
623.05	5876.00
623.50	5807.00
623.95	5787.00
624.40	5734.00
624.85	5782.00
625.30	5718.00
625.75	5797.00
626.20	5803.00
626.65	5798.00
627.10	5805.00
627.55	5748.00
627.99	5725.00
628.44	5724.00
628.89	5734.00
629.34	5760.00
629.79	5747.00
630.24	5781.00
630.69	5754.00
631.14	5816.00
631.59	5810.00
632.04	5823.00
632.49	5833.00
632.94	5863.00
633.38	5838.00
633.83	5775.00
634.28	5805.00
634.73	5781.00
635.18	5894.00
635.63	5885.00
636.08	5943.00
636.53	5907.00
636.97	5864.00
637.42	5945.00
637.87	5919.00
638.32	5943.00
638.77	5951.00
639.22	5949.00
639.67	5920.00
640.11	5936.00
640.56	5890.00
641.01	5890.00
641.46	5798.00
641.91	5964.00
642.36	5893.00
642.81	5933.00
643.25	5931.00
643.70	5898.00
644.15	5929.00
644.60	5901.00
645.05	5942.00
645.49	5916.00
645.94	5849.00
646.39	5882.00
646.84	5879.00
647.29	5805.00
647.73	5844.00
648.18	5794.00
648.63	5796.00
649.08	5816.00
649.53	5741.00
649.97	5793.00
650.42	5793.00
650.87	5897.00
651.32	5893.00
651.77	5826.00
652.21	5778.00
652.66	5907.00
653.11	5817.00
653.56	5912.00
654.00	5900.00
654.45	5848.00
654.90	5794.00
655.35	5783.00
655.79	5545.00
656.24	5376.00
656.69	5359.00
657.14	5542.00
657.58	5690.00
658.03	5825.00
658.48	5831.00
658.92	5826.00
659.37	5835.00
659.82	5843.00
660.27	5941.00
660.71	5858.00
661.16	5907.00
661.61	5919.00
662.05	5993.00
662.50	5930.00
662.95	5930.00
663.39	5855.00
663.84	5944.00
664.29	5859.00
664.74	5896.00
665.18	5965.00
665.63	5878.00
666.08	5885.00
666.52	5879.00
666.97	5901.00
667.42	5906.00
667.86	5853.00
668.31	5882.00
668.76	5899.00
669.20	5906.00
669.65	5867.00
670.09	5949.00
670.54	5917.00
670.99	5892.00
671.43	5870.00
671.88	5794.00
672.33	5826.00
672.77	5843.00
673.22	5828.00
673.66	5834.00
674.11	5841.00
674.56	5874.00
675.00	5839.00
675.45	5872.00
675.90	5814.00
676.34	5893.00
676.79	5875.00
677.23	5846.00
677.68	5906.00
678.12	5861.00
678.57	5837.00
679.02	5844.00
679.46	5846.00
679.91	5831.00
680.35	5815.00
680.80	5851.00
681.25	5827.00
681.69	5865.00
682.14	5840.00
682.58	5831.00
683.03	5782.00
683.47	5818.00
683.92	5771.00
684.36	5763.00
684.81	5673.00
685.25	5724.00
685.70	5673.00
686.15	5663.00
686.59	5473.00
687.04	5026.00
687.48	4867.00
687.93	4904.00
688.37	5153.00
688.82	5274.00
689.26	5280.00
689.71	5209.00
690.15	5291.00
690.60	5313.00
691.04	5451.00
691.49	5407.00
691.93	5500.00
692.38	5504.00
692.82	5542.00
693.27	5470.00
693.71	5443.00
694.16	5414.00
694.60	5474.00
695.04	5450.00
695.49	5486.00
695.93	5477.00
696.38	5577.00
696.82	5631.00
697.27	5678.00
697.71	5632.00
698.16	5576.00
698.60	5576.00
699.04	5512.00
699.49	5531.00
699.93	5550.00
700.38	5498.00
700.82	5391.00
701.27	5465.00
701.71	5476.00
702.15	5433.00
702.60	5496.00
703.04	5471.00
703.49	5488.00
703.93	5504.00
704.37	5527.00
704.82	5552.00
705.26	5600.00
705.71	5580.00
706.15	5594.00
706.59	5576.00
707.04	5477.00
707.48	5558.00
707.93	5564.00
708.37	5563.00
708.81	5525.00
709.26	5526.00
709.70	5547.00
710.14	5556.00
710.59	5551.00
711.03	5554.00
711.47	5593.00
711.92	5504.00
712.36	5525.00
712.80	5567.00
713.25	5560.00
713.69	5542.00
714.13	5525.00
714.58	5476.00
715.02	5398.00
715.46	5399.00
715.91	5427.00
716.35	5324.00
716.79	5151.00
717.24	4974.00
717.68	4908.00
718.12	4850.00
718.57	4776.00
719.01	4725.00
719.45	4690.00
719.89	4726.00
720.34	4687.00
720.78	4811.00
721.22	5001.00
721.66	5147.00
722.11	5132.00
722.55	5177.00
722.99	5126.00
723.44	4960.00
723.88	4853.00
724.32	4831.00
724.76	4900.00
725.21	4858.00
725.65	4897.00
726.09	4904.00
726.53	4890.00
726.97	4966.00
727.42	4933.00
727.86	4852.00
728.30	4875.00
728.74	4938.00
729.19	4842.00
729.63	4815.00
730.07	4937.00
730.51	4926.00
730.95	4926.00
731.40	4950.00
731.84	5015.00
732.28	5097.00
732.72	5191.00
733.16	5170.00
733.61	5194.00
734.05	5195.00
734.49	5286.00
734.93	5225.00
735.37	5179.00
735.81	5218.00
736.26	5187.00
736.70	5232.00
737.14	5202.00
737.58	5214.00
738.02	5202.00
738.46	5244.00
738.90	5157.00
739.35	5105.00
739.79	5231.00
740.23	5245.00
740.67	5267.00
741.11	5185.00
741.55	5208.00
741.99	5183.00
742.44	5187.00
742.88	5207.00
743.32	5248.00
743.76	5234.00
744.20	5226.00
744.64	5290.00
745.08	5251.00
745.52	5270.00
745.96	5312.00
746.40	5312.00
746.84	5277.00
747.29	5296.00
747.73	5275.00
748.17	5278.00
748.61	5330.00
749.05	5315.00
749.49	5265.00
749.93	5251.00
750.37	5295.00
750.81	5301.00
751.25	5321.00
751.69	5311.00
752.13	5303.00
752.57	5296.00
753.01	5217.00
753.45	5289.00
753.89	5318.00
754.33	5260.00
754.77	5263.00
755.21	5289.00
755.65	5251.00
756.09	5253.00
756.53	5289.00
756.97	5271.00
757.41	5199.00
757.85	5248.00
758.29	5196.00
758.73	5109.00
759.17	5015.00
759.61	4402.00
760.05	3624.00
760.49	3193.00
760.93	3055.00
761.37	3243.00
761.81	3737.00
762.25	4006.00
762.69	3832.00
763.13	3642.00
763.57	3644.00
764.01	3703.00
764.45	3882.00
764.89	4047.00
765.33	4172.00
765.77	4359.00
766.21	4458.00
766.65	4689.00
767.09	4774.00
767.53	4886.00
767.96	4994.00
768.40	5014.00
768.84	5018.00
769.28	4999.00
769.72	5120.00
770.16	5121.00
770.60	5123.00
771.04	5167.00
771.48	5190.00
771.92	5132.00
772.35	5205.00
772.79	5120.00
773.23	5176.00
773.67	5208.00
774.11	5165.00
774.55	5094.00
774.99	5015.00
775.43	5055.00
775.86	5103.00
776.30	5130.00
776.74	5168.00
777.18	5108.00
777.62	5074.00
778.06	5091.00
778.50	5100.00
778.93	5132.00
779.37	5071.00
779.81	5023.00
780.25	5008.00
780.69	5021.00
781.12	5061.00
781.56	5036.00
782.00	5046.00
782.44	5072.00
782.88	5068.00
783.32	5103.00
783.75	5001.00
784.19	5068.00
784.63	5062.00
785.07	5040.00
785.50	5001.00
785.94	4999.00
786.38	5004.00
786.82	4978.00
787.26	4957.00
787.69	4954.00
788.13	4930.00
788.57	4918.00
789.01	4925.00
789.44	4885.00
789.88	4855.00
790.32	4906.00
790.76	4884.00
791.19	4858.00
791.63	4744.00
792.07	4846.00
792.51	4808.00
792.94	4809.00
793.38	4801.00
793.82	4813.00
794.25	4826.00
794.69	4854.00
795.13	4870.00
795.56	4854.00
796.00	4820.00
796.44	4792.00
796.88	4751.00
797.31	4748.00
797.75	4799.00
798.19	4764.00
798.62	4748.00
799.06	4803.00
799.50	4755.00
799.93	4745.00
800.37	4739.00
800.81	4728.00
801.24	4717.00
801.68	4780.00
802.12	4727.00
802.55	4708.00
802.99	4671.00
803.43	4706.00
803.86	4659.00
804.30	4653.00
804.73	4632.00
805.17	4655.00
805.61	4726.00
806.04	4706.00
806.48	4736.00
806.92	4751.00
807.35	4718.00
807.79	4710.00
808.22	4625.00
808.66	4681.00
809.10	4643.00
809.53	4617.00
809.97	4612.00
810.40	4549.00
810.84	4569.00
811.27	4574.00
811.71	4559.00
812.15	4518.00
812.58	4519.00
813.02	4459.00
813.45	4356.00
813.89	4359.00
814.32	4313.00
814.76	4204.00
815.19	4175.00
815.63	4147.00
816.07	4159.00
816.50	4063.00
816.94	4074.00
817.37	4169.00
817.81	4147.00
818.24	4142.00
818.68	4177.00
819.11	4233.00
819.55	4165.00
819.98	4161.00
820.42	4288.00
820.85	4367.00
821.29	4325.00
821.72	4317.00
822.16	4208.00
822.59	4064.00
823.03	3868.00
823.46	3955.00
823.90	4179.00
824.33	4250.00
824.77	4339.00
825.20	4378.00
825.63	4309.00
826.07	4293.00
826.50	4341.00
826.94	4386.00
827.37	4234.00
827.81	4154.00
828.24	4205.00
828.68	4173.00
829.11	4171.00
829.54	4191.00
829.98	4229.00
830.41	4234.00
830.85	4290.00
831.28	4289.00
831.71	4257.00
832.15	4251.00
832.58	4312.00
833.02	4227.00
833.45	4234.00
833.88	4260.00
834.32	4299.00
834.75	4272.00
835.19	4339.00
835.62	4310.00
836.05	4366.00
836.49	4318.00
836.92	4371.00
837.35	4377.00
837.79	4387.00
838.22	4397.00
838.66	4440.00
839.09	4455.00
839.52	4414.00
839.96	4429.00
840.39	4412.00
840.82	4405.00
841.26	4375.00
841.69	4365.00
842.12	4354.00
842.56	4361.00
842.99	4347.00
843.42	4353.00
843.85	4337.00
844.29	4374.00
844.72	4385.00
845.15	4389.00
845.59	4414.00
846.02	4438.00
846.45	4406.00
846.88	4387.00
847.32	4426.00
847.75	4347.00
848.18	4345.00
848.62	4364.00
849.05	4341.00
849.48	4293.00
849.91	4168.00
850.35	4214.00
850.78	4349.00
851.21	4325.00
851.64	4327.00
852.08	4354.00
852.51	4356.00
852.94	4349.00
853.37	4319.00
853.80	4102.00
854.24	3983.00
854.67	4093.00
855.10	4239.00
855.53	4262.00
855.97	4261.00
856.40	4305.00
856.83	4343.00
857.26	4324.00
857.69	4348.00
858.13	4312.00
858.56	4372.00
858.99	4341.00
859.42	4323.00
859.85	4366.00
860.28	4345.00
860.72	4352.00
861.15	4321.00
861.58	4335.00
862.01	4309.00
862.44	4309.00
862.87	4304.00
863.30	4310.00
863.74	4285.00
864.17	4302.00
864.60	4276.00
865.03	4327.00
865.46	4270.00
865.89	4078.00
866.32	4086.00
866.75	4179.00
867.19	4275.00
867.62	4279.00
868.05	4241.00
868.48	4294.00
868.91	4255.00
869.34	4273.00
869.77	4259.00
870.20	4263.00
870.63	4244.00
871.06	4274.00
871.49	4236.00
871.93	4272.00
872.36	4279.00
872.79	4242.00
873.22	4251.00
873.65	4210.00
874.08	4262.00
874.51	4217.00
874.94	4246.00
875.37	4232.00
875.80	4251.00
876.23	4253.00
876.66	4186.00
877.09	4202.00
877.52	4222.00
877.95	4262.00
878.38	4193.00
878.81	4189.00
879.24	4162.00
879.67	4161.00
880.10	4156.00
880.53	4129.00
880.96	4146.00
881.39	4215.00
881.82	4216.00
882.25	4208.00
882.68	4216.00
883.11	4223.00
883.54	4239.00
883.97	4258.00
884.40	4195.00
884.83	4216.00
885.26	4217.00
885.69	4133.00
886.12	4111.00
886.55	4130.00
886.98	4126.00
887.40	4169.00
887.83	4198.00
888.26	4175.00
888.69	4202.00
889.12	4196.00
889.55	4145.00
889.98	4158.00
890.41	4215.00
890.84	4172.00
891.27	4144.00
891.70	4151.00
892.12	4137.00
892.55	4046.00
892.98	4094.00
893.41	4049.00
893.84	4057.00
894.27	4015.00
894.70	3939.00
895.13	3886.00
895.55	3900.00
895.98	3835.00
896.41	3779.00
896.84	3798.00
897.27	3783.00
897.70	3804.00
898.13	3789.00
898.55	3614.00
898.98	3597.00
899.41	3802.00
899.84	3733.00
900.27	3671.00
900.70	3680.00
901.12	3679.00
901.55	3721.00
901.98	3648.00
902.41	3687.00
902.84	3837.00
903.26	3914.00
903.69	3918.00
904.12	3887.00
904.55	3924.00
904.97	3940.00
905.40	3885.00
905.83	3813.00
906.26	3734.00
906.69	3698.00
907.11	3709.00
907.54	3716.00
907.97	3698.00
908.40	3672.00
908.82	3663.00
909.25	3648.00
909.68	3644.00
910.10	3655.00
910.53	3687.00
910.96	3728.00
911.39	3676.00
911.81	3681.00
912.24	3707.00
912.67	3580.00
913.09	3543.00
913.52	3579.00
913.95	3702.00
914.38	3698.00
914.80	3585.00
915.23	3512.00
915.66	3612.00
916.08	3696.00
916.51	3688.00
916.94	3573.00
917.36	3582.00
917.79	3631.00
918.22	3693.00
918.64	3717.00
919.07	3699.00
919.50	3741.00
919.92	3751.00
920.35	3684.00
920.78	3656.00
921.20	3646.00
921.63	3706.00
922.05	3726.00
922.48	3709.00
922.91	3638.00
923.33	3622.00
923.76	3619.00
924.18	3664.00
924.61	3651.00
925.04	3688.00
925.46	3615.00
925.89	3630.00
926.31	3665.00
926.74	3589.00
927.17	3491.00
927.59	3406.00
928.02	3363.00
928.44	3331.00
928.87	3300.00
929.29	3247.00
929.72	3193.00
930.15	3201.00
930.57	3116.00
931.00	3099.00
931.42	3010.00
931.85	2958.00
932.27	2942.00
932.70	2950.00
933.12	2870.00
933.55	2835.00
933.97	2821.00
934.40	2953.00
934.82	2933.00
935.25	2875.00
935.67	2911.00
936.10	2879.00
936.52	2830.00
936.95	2863.00
937.37	2831.00
937.80	2863.00
938.22	2919.00
938.65	3028.00
939.07	3038.00
939.50	2991.00
939.92	2954.00
940.35	2931.00
940.77	2957.00
941.19	2921.00
941.62	2923.00
942.04	2876.00
942.47	2854.00
942.89	2900.00
943.32	2846.00
943.74	2822.00
944.16	2885.00
944.59	2905.00
945.01	2845.00
945.44	2850.00
945.86	2870.00
946.29	2895.00
946.71	2905.00
947.13	2898.00
947.56	2893.00
947.98	2928.00
948.40	2965.00
948.83	2893.00
949.25	2831.00
949.68	2907.00
950.10	3001.00
950.52	3039.00
950.95	2970.00
951.37	2890.00
951.79	2885.00
952.22	2941.00
952.64	3011.00
953.06	3017.00
953.49	2973.00
953.91	2963.00
954.33	3007.00
954.76	2959.00
955.18	2997.00
955.60	3015.00
956.03	2974.00
956.45	3048.00
956.87	3127.00
957.30	3075.00
957.72	3050.00
958.14	3015.00
958.56	2992.00
958.99	3039.00
959.41	3085.00
959.83	3085.00
960.26	3104.00
960.68	3153.00
961.10	3114.00
961.52	3075.00
961.95	3118.00
962.37	3207.00
962.79	3169.00
963.21	3136.00
963.64	3152.00
964.06	3195.00
964.48	3205.00
964.90	3214.00
965.32	3165.00
965.75	3127.00
966.17	3220.00
966.59	3295.00
967.01	3326.00
967.44	3303.00
967.86	3306.00
968.28	3362.00
968.70	3344.00
969.12	3337.00
969.54	3352.00
969.97	3345.00
970.39	3412.00
970.81	3335.00
971.23	3338.00
971.65	3299.00
972.07	3305.00
972.50	3306.00
972.92	3248.00
973.34	3288.00
973.76	3296.00
974.18	3252.00
974.60	3258.00
975.02	3249.00
975.45	3279.00
975.87	3298.00
976.29	3325.00
976.71	3330.00
977.13	3270.00
977.55	3313.00
977.97	3307.00
978.39	3315.00
978.81	3308.00
979.24	3324.00
979.66	3343.00
980.08	3365.00
980.50	3388.00
980.92	3366.00
981.34	3346.00
981.76	3343.00
982.18	3377.00
982.60	3364.00
983.02	3365.00
983.44	3356.00
983.86	3379.00
984.28	3374.00
984.70	3360.00
985.12	3351.00
985.54	3340.00
985.96	3335.00
986.38	3315.00
986.80	3311.00
987.23	3339.00
987.65	3346.00
988.07	3365.00
988.49	3344.00
988.91	3355.00
989.33	3352.00
989.74	3356.00
990.16	3345.00
990.58	3345.00
991.00	3323.00
991.42	3335.00
991.84	3312.00
992.26	3321.00
992.68	3335.00
993.10	3338.00
993.52	3351.00
993.94	3334.00
994.36	3321.00
994.78	3320.00
995.20	3289.00
995.62	3305.00
996.04	3325.00
996.46	3310.00
996.88	3310.00
997.30	3332.00
997.71	3357.00
998.13	3316.00
998.55	3317.00
998.97	3341.00
999.39	3347.00
999.81	3343.00
1000.23	3335.00
1000.65	3327.00
1001.07	3313.00
1001.49	3323.00
1001.90	3320.00
1002.32	3328.00
1002.74	3330.00
1003.16	3287.00
1003.58	3302.00
1004.00	3308.00
1004.42	3303.00
1004.83	3292.00
1005.25	3282.00
1005.67	3273.00
1006.09	3294.00
1006.51	3259.00
1006.92	3299.00
1007.34	3272.00
1007.76	3269.00
1008.18	3274.00
1008.60	3297.00
1009.02	3279.00
1009.43	3299.00
1009.85	3292.00
1010.27	3265.00
1010.69	3277.00
1011.10	3250.00
1011.52	3252.00
1011.94	3236.00
1012.36	3215.00
1012.78	3238.00
1013.19	3195.00
1013.61	3214.00
1014.03	3246.00
1014.45	3212.00
1014.86	3224.00
1015.28	3217.00
1015.70	3198.00
1016.12	3171.00
1016.53	3205.00
1016.95	3156.00
1017.37	3195.00
1017.78	3174.00
1018.20	3157.00
1018.62	3160.00
1019.03	3170.00
1019.45	3150.00
1019.87	3146.00
1020.29	3146.00
1020.70	3144.00
1021.12	3148.00
1021.54	3129.00
1021.95	3131.00
1022.37	3130.00
1022.79	3096.00
1023.20	3136.00
1023.62	3117.00
1024.04	3087.00
1024.45	3105.00
1024.87	3088.00
1025.28	3101.00
1025.70	3103.00
1026.12	3121.00
1026.53	3111.00
1026.95	3079.00
1027.37	3073.00
1027.78	3068.00
1028.20	3071.00
1028.61	3061.00
1029.03	3063.00
1029.45	3072.00
1029.86	3077.00
1030.28	3046.00
1030.69	3045.00
1031.11	3038.00
1031.53	3040.00
1031.94	3006.00
1032.36	3008.00
1032.77	3024.00
1033.19	2995.00
1033.60	3012.00
1034.02	2994.00
1034.43	3018.00
1034.85	3015.00
1035.27	2989.00
1035.68	2989.00
1036.10	3009.00
1036.51	2977.00
1036.93	2981.00
1037.34	2963.00
1037.76	2960.00
1038.17	2971.00
1038.59	2950.00
1039.00	2971.00
1039.42	2975.00
1039.83	2954.00
1040.25	2930.00
1040.66	2942.00
1041.08	2912.00
1041.49	2927.00
1041.91	2945.00
1042.32	2933.00
1042.73	2914.00
1043.15	2916.00
1043.56	2925.00
1043.98	2914.00
1044.39	2905.00
1044.81	2924.00
1045.22	2897.00
1045.64	2884.00
1046.05	2891.00
1046.46	2897.00
1046.88	2869.00
1047.29	2879.00
1047.71	2889.00
1048.12	2852.00
1048.53	2881.00
1048.95	2855.00
1049.36	2865.00
1049.78	2863.00
1050.19	2860.00
1050.60	2849.00
1051.02	2851.00
1051.43	2858.00
1051.85	2847.00
1052.26	2840.00
1052.67	2857.00
1053.09	2828.00
1053.50	2839.00
1053.91	2842.00
1054.33	2838.00
1054.74	2809.00
1055.15	2841.00
1055.57	2808.00
1055.98	2803.00
1056.39	2799.00
1056.81	2805.00
1057.22	2795.00
1057.63	2795.00
1058.05	2784.00
1058.46	2791.00
1058.87	2799.00
1059.28	2800.00
1059.70	2804.00
1060.11	2787.00
1060.52	2766.00
1060.94	2791.00
1061.35	2759.00
1061.76	2776.00
1062.17	2768.00
1062.59	2774.00
1063.00	2767.00
1063.41	2771.00
1063.82	2779.00
1064.24	2759.00
1064.65	2759.00
1065.06	2753.00
1065.47	2757.00
1065.89	2756.00
1066.30	2747.00
1066.71	2743.00
1067.12	2742.00
1067.53	2735.00
1067.95	2746.00
1068.36	2751.00
1068.77	2736.00
1069.18	2757.00
1069.59	2732.00
1070.00	2728.00
1070.42	2707.00
1070.83	2723.00
1071.24	2729.00
1071.65	2716.00
1072.06	2727.00
1072.47	2704.00
1072.89	2718.00
1073.30	2729.00
1073.71	2734.00
1074.12	2714.00
1074.53	2706.00
1074.94	2698.00
1075.35	2691.00
1075.77	2701.00
1076.18	2691.00
1076.59	2715.00
1077.00	2699.00
1077.41	2703.00
1077.82	2699.00
1078.23	2681.00
1078.64	2692.00
1079.05	2703.00
1079.46	2688.00
1079.87	2690.00
1080.29	2694.00
1080.70	2691.00
1081.11	2681.00
1081.52	2680.00
1081.93	2684.00
1082.34	2679.00
1082.75	2686.00
1083.16	2688.00
1083.57	2681.00
1083.98	2667.00
1084.39	2674.00
1084.80	2681.00
1085.21	2676.00
1085.62	2658.00
1086.03	2696.00
1086.44	2664.00
1086.85	2669.00
1087.26	2674.00
1087.67	2665.00
1088.08	2656.00
1088.49	2663.00
1088.90	2673.00
1089.31	2653.00
1089.72	2663.00
1090.13	2659.00
1090.54	2656.00
1090.95	2653.00
1091.36	2657.00
1091.77	2646.00
1092.18	2654.00
1092.59	2639.00
1093.00	2644.00
1093.40	2653.00
1093.81	2640.00
1094.22	2643.00
1094.63	2655.00
1095.04	2642.00
1095.45	2640.00
1095.86	2640.00
1096.27	2646.00
1096.68	2636.00
1097.09	2638.00
1097.50	2633.00
1097.90	2638.00
1098.31	2623.00
1098.72	2635.00
1099.13	2621.00
1099.54	2624.00
1099.95	2619.00
1100.36	2624.00
1100.76	2621.00
1101.17	2629.00
1101.58	2623.00
1101.99	2621.00
1102.40	2625.00
1102.81	2625.00
1103.22	2615.00
1103.62	2615.00
1104.03	2621.00
1104.44	2617.00
1104.85	2617.00
1105.26	2619.00
1105.66	2619.00
1106.07	2616.00
1106.48	2610.00
1106.89	2616.00
1107.30	2618.00
1107.70	2612.00
1108.11	2613.00
1108.52	2612.00
1108.93	2610.00
1109.33	2609.00
1109.74	2601.00
1110.15	2617.00
1110.56	2609.00
1110.96	2603.00
1111.37	2602.00
1111.78	2613.00
1112.19	2610.00
1112.59	2603.00
1113.00	2605.00
1113.41	2607.00
1113.81	2605.00
1114.22	2603.00
1114.63	2572.00
1115.03	2572.00
1115.44	2576.00
1115.85	2577.00
>>>>>End Processed Spectral Data<<<<<
