SpectraSuite Data File
++++++++++++++++++++++++++++++++++++
Date: Thu Aug 05 10:45:31 EEST 2021
User: CanSEE
Dark Spectrum Present: No
Reference Spectrum Present: No
Number of Sampled Component Spectra: 1
Spectrometers: MAYP112785
Integration Time (usec): 10000 (MAYP112785)
Spectra Averaged: 1 (MAYP112785)
Boxcar Smoothing: 0 (MAYP112785)
Correct for Electrical Dark: No (MAYP112785)
Strobe/Lamp Enabled: No (MAYP112785)
Correct for Detector Non-linearity: No (MAYP112785)
Correct for Stray Light: No (MAYP112785)
Number of Pixels in Processed Spectrum: 2068
>>>>>Begin Processed Spectral Data<<<<<
198.35	3485.00
198.82	2489.00
199.30	2587.00
199.77	2574.00
200.24	2603.00
200.71	2605.00
201.18	2602.00
201.65	2608.00
202.13	2617.00
202.60	2614.00
203.07	2618.00
203.54	2604.00
204.01	2606.00
204.48	2601.00
204.96	2595.00
205.43	2601.00
205.90	2604.00
206.37	2608.00
206.84	2607.00
207.31	2605.00
207.78	2609.00
208.26	2613.00
208.73	2606.00
209.20	2613.00
209.67	2606.00
210.14	2608.00
210.61	2606.00
211.08	2610.00
211.56	2613.00
212.03	2602.00
212.50	2606.00
212.97	2607.00
213.44	2602.00
213.91	2600.00
214.38	2612.00
214.85	2602.00
215.33	2608.00
215.80	2607.00
216.27	2598.00
216.74	2601.00
217.21	2607.00
217.68	2601.00
218.15	2603.00
218.62	2605.00
219.09	2596.00
219.57	2610.00
220.04	2612.00
220.51	2604.00
220.98	2609.00
221.45	2607.00
221.92	2609.00
222.39	2612.00
222.86	2605.00
223.33	2604.00
223.80	2601.00
224.27	2603.00
224.74	2599.00
225.22	2596.00
225.69	2613.00
226.16	2601.00
226.63	2607.00
227.10	2612.00
227.57	2610.00
228.04	2607.00
228.51	2607.00
228.98	2610.00
229.45	2608.00
229.92	2607.00
230.39	2599.00
230.86	2613.00
231.33	2609.00
231.80	2613.00
232.27	2608.00
232.75	2603.00
233.22	2605.00
233.69	2606.00
234.16	2610.00
234.63	2604.00
235.10	2598.00
235.57	2601.00
236.04	2605.00
236.51	2603.00
236.98	2610.00
237.45	2610.00
237.92	2610.00
238.39	2602.00
238.86	2614.00
239.33	2675.00
239.80	2606.00
240.27	2611.00
240.74	2605.00
241.21	2601.00
241.68	2602.00
242.15	2601.00
242.62	2602.00
243.09	2607.00
243.56	2608.00
244.03	2608.00
244.50	2605.00
244.97	2607.00
245.44	2625.00
245.91	2603.00
246.38	2606.00
246.85	2606.00
247.32	2611.00
247.79	2601.00
248.26	2612.00
248.73	2604.00
249.20	2612.00
249.67	2608.00
250.14	2612.00
250.61	2605.00
251.08	2608.00
251.55	2605.00
252.02	2613.00
252.49	2609.00
252.96	2609.00
253.43	2604.00
253.90	2607.00
254.37	2607.00
254.84	2604.00
255.31	2606.00
255.77	2613.00
256.24	2600.00
256.71	2604.00
257.18	2610.00
257.65	2610.00
258.12	2612.00
258.59	2608.00
259.06	2613.00
259.53	2614.00
260.00	2611.00
260.47	2612.00
260.94	2606.00
261.41	2615.00
261.88	2610.00
262.35	2615.00
262.81	2600.00
263.28	2606.00
263.75	2605.00
264.22	2610.00
264.69	2608.00
265.16	2606.00
265.63	2604.00
266.10	2609.00
266.57	2609.00
267.04	2608.00
267.51	2614.00
267.97	2610.00
268.44	2602.00
268.91	2611.00
269.38	2607.00
269.85	2611.00
270.32	2610.00
270.79	2614.00
271.26	2615.00
271.73	2606.00
272.19	2614.00
272.66	2602.00
273.13	2609.00
273.60	2603.00
274.07	2615.00
274.54	2613.00
275.01	2611.00
275.48	2606.00
275.94	2615.00
276.41	2612.00
276.88	2612.00
277.35	2606.00
277.82	2604.00
278.29	2608.00
278.76	2610.00
279.22	2605.00
279.69	2608.00
280.16	2615.00
280.63	2604.00
281.10	2610.00
281.57	2605.00
282.04	2608.00
282.50	2614.00
282.97	2603.00
283.44	2607.00
283.91	2604.00
284.38	2611.00
284.85	2610.00
285.31	2611.00
285.78	2611.00
286.25	2601.00
286.72	2611.00
287.19	2602.00
287.65	2605.00
288.12	2606.00
288.59	2610.00
289.06	2610.00
289.53	2605.00
289.99	2602.00
290.46	2599.00
290.93	2612.00
291.40	2606.00
291.87	2607.00
292.33	2605.00
292.80	2607.00
293.27	2603.00
293.74	2607.00
294.21	2613.00
294.67	2606.00
295.14	2613.00
295.61	2609.00
296.08	2605.00
296.54	2609.00
297.01	2611.00
297.48	2613.00
297.95	2605.00
298.42	2609.00
298.88	2609.00
299.35	2616.00
299.82	2615.00
300.29	2605.00
300.75	2611.00
301.22	2604.00
301.69	2608.00
302.16	2609.00
302.62	2607.00
303.09	2611.00
303.56	2613.00
304.03	2615.00
304.49	2616.00
304.96	2613.00
305.43	2617.00
305.90	2605.00
306.36	2615.00
306.83	2612.00
307.30	2627.00
307.76	2617.00
308.23	2615.00
308.70	2630.00
309.17	2626.00
309.63	2621.00
310.10	2640.00
310.57	2627.00
311.03	2637.00
311.50	2654.00
311.97	2645.00
312.44	2643.00
312.90	2651.00
313.37	2660.00
313.84	2653.00
314.30	2658.00
314.77	2674.00
315.24	2684.00
315.70	2667.00
316.17	2664.00
316.64	2691.00
317.10	2695.00
317.57	2693.00
318.04	2691.00
318.50	2686.00
318.97	2695.00
319.44	2716.00
319.90	2717.00
320.37	2708.00
320.84	2738.00
321.30	2738.00
321.77	2727.00
322.24	2713.00
322.70	2724.00
323.17	2731.00
323.64	2730.00
324.10	2745.00
324.57	2753.00
325.04	2770.00
325.50	2751.00
325.97	2784.00
326.44	2828.00
326.90	2812.00
327.37	2821.00
327.84	2805.00
328.30	2810.00
328.77	2795.00
329.23	2844.00
329.70	2853.00
330.17	2843.00
330.63	2835.00
331.10	2825.00
331.56	2830.00
332.03	2827.00
332.50	2839.00
332.96	2838.00
333.43	2839.00
333.90	2836.00
334.36	2838.00
334.83	2841.00
335.29	2832.00
335.76	2824.00
336.22	2827.00
336.69	2811.00
337.16	2815.00
337.62	2818.00
338.09	2823.00
338.55	2880.00
339.02	2872.00
339.49	2877.00
339.95	2881.00
340.42	2881.00
340.88	2871.00
341.35	2878.00
341.81	2861.00
342.28	2875.00
342.75	2876.00
343.21	2891.00
343.68	2888.00
344.14	2870.00
344.61	2846.00
345.07	2851.00
345.54	2893.00
346.00	2895.00
346.47	2909.00
346.93	2900.00
347.40	2929.00
347.87	2901.00
348.33	2914.00
348.80	2938.00
349.26	2920.00
349.73	2919.00
350.19	2935.00
350.66	2977.00
351.12	2953.00
351.59	2949.00
352.05	2945.00
352.52	2948.00
352.98	2944.00
353.45	2948.00
353.91	2968.00
354.38	2981.00
354.84	3016.00
355.31	2996.00
355.77	2985.00
356.24	2950.00
356.70	2959.00
357.17	2890.00
357.63	2898.00
358.10	2905.00
358.56	2894.00
359.03	2900.00
359.49	2950.00
359.96	2985.00
360.42	3005.00
360.89	2948.00
361.35	2954.00
361.82	2964.00
362.28	2971.00
362.75	2993.00
363.21	3018.00
363.67	3005.00
364.14	3011.00
364.60	3010.00
365.07	3047.00
365.53	3048.00
366.00	3110.00
366.46	3096.00
366.93	3114.00
367.39	3097.00
367.86	3081.00
368.32	3093.00
368.78	3087.00
369.25	3093.00
369.71	3098.00
370.18	3106.00
370.64	3073.00
371.11	3077.00
371.57	3093.00
372.03	3109.00
372.50	3036.00
372.96	3028.00
373.43	3038.00
373.89	3019.00
374.35	3016.00
374.82	3046.00
375.28	3051.00
375.75	3111.00
376.21	3167.00
376.67	3134.00
377.14	3139.00
377.60	3203.00
378.07	3218.00
378.53	3235.00
378.99	3197.00
379.46	3171.00
379.92	3140.00
380.39	3174.00
380.85	3180.00
381.31	3181.00
381.78	3112.00
382.24	3064.00
382.70	3044.00
383.17	3001.00
383.63	2993.00
384.09	3015.00
384.56	3088.00
385.02	3178.00
385.48	3153.00
385.95	3146.00
386.41	3137.00
386.88	3157.00
387.34	3158.00
387.80	3156.00
388.27	3184.00
388.73	3184.00
389.19	3236.00
389.66	3280.00
390.12	3327.00
390.58	3322.00
391.05	3305.00
391.51	3320.00
391.97	3293.00
392.43	3239.00
392.90	3154.00
393.36	3096.00
393.82	3042.00
394.29	3171.00
394.75	3284.00
395.21	3313.00
395.68	3356.00
396.14	3300.00
396.60	3222.00
397.07	3179.00
397.53	3253.00
397.99	3426.00
398.45	3562.00
398.92	3640.00
399.38	3677.00
399.84	3698.00
400.31	3710.00
400.77	3773.00
401.23	3756.00
401.69	3821.00
402.16	3819.00
402.62	3833.00
403.08	3793.00
403.54	3748.00
404.01	3777.00
404.47	3791.00
404.93	3731.00
405.39	3774.00
405.86	3794.00
406.32	3777.00
406.78	3783.00
407.24	3796.00
407.71	3765.00
408.17	3818.00
408.63	3898.00
409.09	3897.00
409.56	3881.00
410.02	3823.00
410.48	3843.00
410.94	3867.00
411.40	3914.00
411.87	3965.00
412.33	4024.00
412.79	3976.00
413.25	3968.00
413.71	3951.00
414.18	4036.00
414.64	4025.00
415.10	3974.00
415.56	4015.00
416.02	4024.00
416.49	4032.00
416.95	4050.00
417.41	4037.00
417.87	3938.00
418.33	4033.00
418.80	3983.00
419.26	4004.00
419.72	4009.00
420.18	4004.00
420.64	4021.00
421.10	4128.00
421.57	4100.00
422.03	4091.00
422.49	4071.00
422.95	4027.00
423.41	4014.00
423.87	4068.00
424.34	4048.00
424.80	4079.00
425.26	4063.00
425.72	4071.00
426.18	4015.00
426.64	4073.00
427.10	4080.00
427.57	4051.00
428.03	3966.00
428.49	4027.00
428.95	3948.00
429.41	3913.00
429.87	3884.00
430.33	3817.00
430.79	3866.00
431.26	3902.00
431.72	4009.00
432.18	4176.00
432.64	4192.00
433.10	4093.00
433.56	4188.00
434.02	4179.00
434.48	4132.00
434.94	4250.00
435.40	4282.00
435.87	4327.00
436.33	4343.00
436.79	4313.00
437.25	4293.00
437.71	4279.00
438.17	4274.00
438.63	4244.00
439.09	4248.00
439.55	4297.00
440.01	4389.00
440.47	4400.00
440.93	4409.00
441.39	4457.00
441.85	4535.00
442.32	4495.00
442.78	4583.00
443.24	4511.00
443.70	4569.00
444.16	4554.00
444.62	4545.00
445.08	4586.00
445.54	4603.00
446.00	4512.00
446.46	4614.00
446.92	4623.00
447.38	4669.00
447.84	4718.00
448.30	4757.00
448.76	4706.00
449.22	4786.00
449.68	4803.00
450.14	4846.00
450.60	4869.00
451.06	4891.00
451.52	4871.00
451.98	4818.00
452.44	4763.00
452.90	4778.00
453.36	4712.00
453.82	4718.00
454.28	4796.00
454.74	4819.00
455.20	4838.00
455.66	4819.00
456.12	4894.00
456.58	4973.00
457.04	4950.00
457.50	4894.00
457.96	4933.00
458.42	4925.00
458.88	4934.00
459.34	4901.00
459.80	4894.00
460.26	4877.00
460.72	4971.00
461.18	5006.00
461.64	5029.00
462.10	5025.00
462.55	5048.00
463.01	5010.00
463.47	5019.00
463.93	5020.00
464.39	4953.00
464.85	5033.00
465.31	4945.00
465.77	4958.00
466.23	4932.00
466.69	4969.00
467.15	4937.00
467.61	4997.00
468.07	5002.00
468.52	5047.00
468.98	5012.00
469.44	5030.00
469.90	4981.00
470.36	4980.00
470.82	4960.00
471.28	5080.00
471.74	5071.00
472.20	5125.00
472.66	5067.00
473.11	5133.00
473.57	5136.00
474.03	5120.00
474.49	5132.00
474.95	5107.00
475.41	5138.00
475.87	5163.00
476.33	5119.00
476.78	5169.00
477.24	5184.00
477.70	5178.00
478.16	5232.00
478.62	5223.00
479.08	5230.00
479.54	5266.00
479.99	5258.00
480.45	5255.00
480.91	5275.00
481.37	5278.00
481.83	5267.00
482.29	5290.00
482.74	5331.00
483.20	5299.00
483.66	5263.00
484.12	5306.00
484.58	5211.00
485.04	5088.00
485.49	4989.00
485.95	5021.00
486.41	4959.00
486.87	4969.00
487.33	5026.00
487.78	5117.00
488.24	5139.00
488.70	5228.00
489.16	5246.00
489.62	5252.00
490.07	5278.00
490.53	5271.00
490.99	5276.00
491.45	5250.00
491.90	5264.00
492.36	5266.00
492.82	5224.00
493.28	5290.00
493.74	5319.00
494.19	5326.00
494.65	5357.00
495.11	5375.00
495.57	5399.00
496.02	5331.00
496.48	5403.00
496.94	5398.00
497.40	5425.00
497.85	5308.00
498.31	5325.00
498.77	5301.00
499.23	5322.00
499.68	5372.00
500.14	5280.00
500.60	5247.00
501.06	5207.00
501.51	5243.00
501.97	5229.00
502.43	5272.00
502.88	5286.00
503.34	5319.00
503.80	5340.00
504.26	5299.00
504.71	5323.00
505.17	5357.00
505.63	5420.00
506.08	5388.00
506.54	5409.00
507.00	5397.00
507.45	5293.00
507.91	5369.00
508.37	5394.00
508.82	5402.00
509.28	5444.00
509.74	5468.00
510.19	5438.00
510.65	5470.00
511.11	5516.00
511.56	5494.00
512.02	5449.00
512.48	5485.00
512.93	5459.00
513.39	5374.00
513.85	5364.00
514.30	5410.00
514.76	5367.00
515.22	5404.00
515.67	5384.00
516.13	5306.00
516.59	5217.00
517.04	5226.00
517.50	5095.00
517.95	5105.00
518.41	5251.00
518.87	5280.00
519.32	5294.00
519.78	5413.00
520.24	5495.00
520.69	5448.00
521.15	5485.00
521.60	5467.00
522.06	5456.00
522.52	5524.00
522.97	5474.00
523.43	5471.00
523.88	5510.00
524.34	5590.00
524.80	5613.00
525.25	5585.00
525.71	5488.00
526.16	5456.00
526.62	5416.00
527.07	5380.00
527.53	5480.00
527.99	5535.00
528.44	5617.00
528.90	5715.00
529.35	5694.00
529.81	5697.00
530.26	5683.00
530.72	5640.00
531.17	5721.00
531.63	5724.00
532.09	5612.00
532.54	5616.00
533.00	5614.00
533.45	5530.00
533.91	5667.00
534.36	5664.00
534.82	5709.00
535.27	5761.00
535.73	5736.00
536.18	5745.00
536.64	5730.00
537.09	5641.00
537.55	5703.00
538.00	5709.00
538.46	5662.00
538.91	5708.00
539.37	5609.00
539.82	5594.00
540.28	5577.00
540.73	5553.00
541.19	5637.00
541.64	5617.00
542.10	5648.00
542.55	5669.00
543.01	5673.00
543.46	5722.00
543.92	5696.00
544.37	5678.00
544.83	5778.00
545.28	5707.00
545.74	5731.00
546.19	5745.00
546.64	5741.00
547.10	5713.00
547.55	5690.00
548.01	5709.00
548.46	5720.00
548.92	5766.00
549.37	5742.00
549.83	5786.00
550.28	5753.00
550.73	5766.00
551.19	5792.00
551.64	5758.00
552.10	5728.00
552.55	5803.00
553.00	5769.00
553.46	5777.00
553.91	5752.00
554.37	5833.00
554.82	5824.00
555.28	5856.00
555.73	5780.00
556.18	5803.00
556.64	5749.00
557.09	5684.00
557.54	5734.00
558.00	5736.00
558.45	5733.00
558.91	5680.00
559.36	5667.00
559.81	5693.00
560.27	5738.00
560.72	5760.00
561.17	5743.00
561.63	5824.00
562.08	5766.00
562.54	5764.00
562.99	5752.00
563.44	5820.00
563.90	5812.00
564.35	5799.00
564.80	5791.00
565.26	5740.00
565.71	5723.00
566.16	5735.00
566.62	5743.00
567.07	5729.00
567.52	5766.00
567.98	5740.00
568.43	5714.00
568.88	5751.00
569.34	5733.00
569.79	5743.00
570.24	5706.00
570.69	5731.00
571.15	5716.00
571.60	5665.00
572.05	5753.00
572.51	5819.00
572.96	5836.00
573.41	5765.00
573.86	5852.00
574.32	5835.00
574.77	5791.00
575.22	5783.00
575.68	5762.00
576.13	5742.00
576.58	5781.00
577.03	5792.00
577.49	5745.00
577.94	5780.00
578.39	5722.00
578.84	5723.00
579.30	5822.00
579.75	5780.00
580.20	5818.00
580.65	5862.00
581.11	5845.00
581.56	5886.00
582.01	5856.00
582.46	5913.00
582.92	5933.00
583.37	5893.00
583.82	5938.00
584.27	5932.00
584.72	5918.00
585.18	5840.00
585.63	5845.00
586.08	5830.00
586.53	5886.00
586.98	5857.00
587.44	5815.00
587.89	5788.00
588.34	5748.00
588.79	5579.00
589.24	5540.00
589.70	5544.00
590.15	5592.00
590.60	5669.00
591.05	5749.00
591.50	5736.00
591.96	5813.00
592.41	5819.00
592.86	5809.00
593.31	5774.00
593.76	5740.00
594.21	5768.00
594.66	5734.00
595.12	5711.00
595.57	5797.00
596.02	5778.00
596.47	5898.00
596.92	5781.00
597.37	5834.00
597.82	5813.00
598.28	5749.00
598.73	5840.00
599.18	5794.00
599.63	5869.00
600.08	5765.00
600.53	5716.00
600.98	5792.00
601.43	5847.00
601.88	5694.00
602.34	5749.00
602.79	5759.00
603.24	5799.00
603.69	5863.00
604.14	5812.00
604.59	5953.00
605.04	5889.00
605.49	5921.00
605.94	5873.00
606.39	5864.00
606.84	5873.00
607.30	5917.00
607.75	5863.00
608.20	5872.00
608.65	5883.00
609.10	5872.00
609.55	5874.00
610.00	5871.00
610.45	5877.00
610.90	5843.00
611.35	5864.00
611.80	5884.00
612.25	5858.00
612.70	5905.00
613.15	5817.00
613.60	5804.00
614.05	5826.00
614.50	5788.00
614.95	5854.00
615.40	5811.00
615.85	5771.00
616.30	5752.00
616.75	5731.00
617.20	5754.00
617.65	5778.00
618.10	5882.00
618.55	5881.00
619.00	5901.00
619.45	5902.00
619.90	5953.00
620.35	5954.00
620.80	5916.00
621.25	5969.00
621.70	5843.00
622.15	5861.00
622.60	5879.00
623.05	5800.00
623.50	5804.00
623.95	5774.00
624.40	5796.00
624.85	5790.00
625.30	5749.00
625.75	5779.00
626.20	5814.00
626.65	5782.00
627.10	5840.00
627.55	5743.00
627.99	5709.00
628.44	5675.00
628.89	5737.00
629.34	5748.00
629.79	5754.00
630.24	5766.00
630.69	5812.00
631.14	5736.00
631.59	5761.00
632.04	5808.00
632.49	5826.00
632.94	5843.00
633.38	5838.00
633.83	5812.00
634.28	5839.00
634.73	5821.00
635.18	5957.00
635.63	5911.00
636.08	5929.00
636.53	5828.00
636.97	5914.00
637.42	5935.00
637.87	5886.00
638.32	5935.00
638.77	6040.00
639.22	5938.00
639.67	5877.00
640.11	5899.00
640.56	5892.00
641.01	5901.00
641.46	5822.00
641.91	5949.00
642.36	5908.00
642.81	5885.00
643.25	5899.00
643.70	5913.00
644.15	5966.00
644.60	5912.00
645.05	5943.00
645.49	5931.00
645.94	5911.00
646.39	5846.00
646.84	5863.00
647.29	5792.00
647.73	5823.00
648.18	5764.00
648.63	5826.00
649.08	5780.00
649.53	5688.00
649.97	5804.00
650.42	5819.00
650.87	5881.00
651.32	5861.00
651.77	5838.00
652.21	5873.00
652.66	5873.00
653.11	5847.00
653.56	5915.00
654.00	5856.00
654.45	5854.00
654.90	5767.00
655.35	5729.00
655.79	5562.00
656.24	5392.00
656.69	5336.00
657.14	5500.00
657.58	5623.00
658.03	5769.00
658.48	5790.00
658.92	5792.00
659.37	5794.00
659.82	5894.00
660.27	5863.00
660.71	5908.00
661.16	5912.00
661.61	5883.00
662.05	5889.00
662.50	5893.00
662.95	5896.00
663.39	5857.00
663.84	5907.00
664.29	5836.00
664.74	5872.00
665.18	5869.00
665.63	5882.00
666.08	5877.00
666.52	5926.00
666.97	5869.00
667.42	5875.00
667.86	5877.00
668.31	5875.00
668.76	5879.00
669.20	5920.00
669.65	5844.00
670.09	5870.00
670.54	5827.00
670.99	5857.00
671.43	5824.00
671.88	5821.00
672.33	5826.00
672.77	5872.00
673.22	5867.00
673.66	5865.00
674.11	5874.00
674.56	5860.00
675.00	5816.00
675.45	5841.00
675.90	5884.00
676.34	5841.00
676.79	5865.00
677.23	5821.00
677.68	5808.00
678.12	5819.00
678.57	5865.00
679.02	5874.00
679.46	5834.00
679.91	5792.00
680.35	5891.00
680.80	5816.00
681.25	5812.00
681.69	5822.00
682.14	5843.00
682.58	5796.00
683.03	5852.00
683.47	5801.00
683.92	5786.00
684.36	5768.00
684.81	5767.00
685.25	5756.00
685.70	5689.00
686.15	5655.00
686.59	5422.00
687.04	4986.00
687.48	4860.00
687.93	4948.00
688.37	5127.00
688.82	5312.00
689.26	5172.00
689.71	5213.00
690.15	5320.00
690.60	5309.00
691.04	5370.00
691.49	5428.00
691.93	5526.00
692.38	5541.00
692.82	5470.00
693.27	5512.00
693.71	5485.00
694.16	5406.00
694.60	5353.00
695.04	5468.00
695.49	5521.00
695.93	5492.00
696.38	5542.00
696.82	5618.00
697.27	5680.00
697.71	5606.00
698.16	5599.00
698.60	5563.00
699.04	5489.00
699.49	5532.00
699.93	5477.00
700.38	5481.00
700.82	5472.00
701.27	5466.00
701.71	5470.00
702.15	5412.00
702.60	5411.00
703.04	5485.00
703.49	5465.00
703.93	5451.00
704.37	5578.00
704.82	5597.00
705.26	5617.00
705.71	5548.00
706.15	5549.00
706.59	5493.00
707.04	5565.00
707.48	5521.00
707.93	5513.00
708.37	5549.00
708.81	5542.00
709.26	5508.00
709.70	5553.00
710.14	5558.00
710.59	5537.00
711.03	5573.00
711.47	5582.00
711.92	5551.00
712.36	5511.00
712.80	5500.00
713.25	5517.00
713.69	5510.00
714.13	5597.00
714.58	5556.00
715.02	5461.00
715.46	5455.00
715.91	5378.00
716.35	5326.00
716.79	5166.00
717.24	5011.00
717.68	4870.00
718.12	4832.00
718.57	4751.00
719.01	4700.00
719.45	4711.00
719.89	4685.00
720.34	4725.00
720.78	4783.00
721.22	4968.00
721.66	5134.00
722.11	5169.00
722.55	5115.00
722.99	5120.00
723.44	4969.00
723.88	4924.00
724.32	4845.00
724.76	4896.00
725.21	4850.00
725.65	4889.00
726.09	4887.00
726.53	4912.00
726.97	4928.00
727.42	4911.00
727.86	4826.00
728.30	4906.00
728.74	4937.00
729.19	4884.00
729.63	4869.00
730.07	4899.00
730.51	4935.00
730.95	4913.00
731.40	4960.00
731.84	4988.00
732.28	5128.00
732.72	5138.00
733.16	5136.00
733.61	5169.00
734.05	5264.00
734.49	5230.00
734.93	5195.00
735.37	5184.00
735.81	5240.00
736.26	5208.00
736.70	5196.00
737.14	5227.00
737.58	5228.00
738.02	5235.00
738.46	5201.00
738.90	5188.00
739.35	5171.00
739.79	5197.00
740.23	5229.00
740.67	5213.00
741.11	5177.00
741.55	5174.00
741.99	5210.00
742.44	5201.00
742.88	5211.00
743.32	5230.00
743.76	5262.00
744.20	5223.00
744.64	5217.00
745.08	5236.00
745.52	5328.00
745.96	5275.00
746.40	5260.00
746.84	5287.00
747.29	5301.00
747.73	5308.00
748.17	5249.00
748.61	5303.00
749.05	5198.00
749.49	5270.00
749.93	5229.00
750.37	5264.00
750.81	5246.00
751.25	5287.00
751.69	5280.00
752.13	5274.00
752.57	5242.00
753.01	5260.00
753.45	5220.00
753.89	5291.00
754.33	5310.00
754.77	5280.00
755.21	5247.00
755.65	5252.00
756.09	5256.00
756.53	5283.00
756.97	5279.00
757.41	5265.00
757.85	5220.00
758.29	5180.00
758.73	5091.00
759.17	4976.00
759.61	4345.00
760.05	3593.00
760.49	3157.00
760.93	3074.00
761.37	3259.00
761.81	3708.00
762.25	3947.00
762.69	3758.00
763.13	3670.00
763.57	3627.00
764.01	3701.00
764.45	3840.00
764.89	3994.00
765.33	4203.00
765.77	4323.00
766.21	4452.00
766.65	4638.00
767.09	4794.00
767.53	4901.00
767.96	5020.00
768.40	4927.00
768.84	5015.00
769.28	5028.00
769.72	5081.00
770.16	5119.00
770.60	5126.00
771.04	5171.00
771.48	5078.00
771.92	5152.00
772.35	5145.00
772.79	5168.00
773.23	5200.00
773.67	5129.00
774.11	5154.00
774.55	5137.00
774.99	5095.00
775.43	5120.00
775.86	5113.00
776.30	5140.00
776.74	5076.00
777.18	5101.00
777.62	5129.00
778.06	5111.00
778.50	5084.00
778.93	5053.00
779.37	5098.00
779.81	5129.00
780.25	5001.00
780.69	5040.00
781.12	5061.00
781.56	5071.00
782.00	5056.00
782.44	5059.00
782.88	5103.00
783.32	5063.00
783.75	5041.00
784.19	5026.00
784.63	5045.00
785.07	4977.00
785.50	4965.00
785.94	4988.00
786.38	4967.00
786.82	4955.00
787.26	4921.00
787.69	4950.00
788.13	4994.00
788.57	4911.00
789.01	4917.00
789.44	4917.00
789.88	4876.00
790.32	4895.00
790.76	4903.00
791.19	4830.00
791.63	4786.00
792.07	4797.00
792.51	4834.00
792.94	4747.00
793.38	4755.00
793.82	4798.00
794.25	4807.00
794.69	4834.00
795.13	4829.00
795.56	4865.00
796.00	4788.00
796.44	4756.00
796.88	4735.00
797.31	4749.00
797.75	4776.00
798.19	4744.00
798.62	4780.00
799.06	4774.00
799.50	4746.00
799.93	4774.00
800.37	4742.00
800.81	4800.00
801.24	4738.00
801.68	4766.00
802.12	4710.00
802.55	4656.00
802.99	4674.00
803.43	4683.00
803.86	4675.00
804.30	4733.00
804.73	4633.00
805.17	4639.00
805.61	4710.00
806.04	4725.00
806.48	4746.00
806.92	4705.00
807.35	4679.00
807.79	4715.00
808.22	4696.00
808.66	4622.00
809.10	4592.00
809.53	4597.00
809.97	4561.00
810.40	4611.00
810.84	4546.00
811.27	4534.00
811.71	4607.00
812.15	4503.00
812.58	4488.00
813.02	4508.00
813.45	4293.00
813.89	4330.00
814.32	4292.00
814.76	4230.00
815.19	4205.00
815.63	4170.00
816.07	4097.00
816.50	4015.00
816.94	4095.00
817.37	4185.00
817.81	4109.00
818.24	4119.00
818.68	4156.00
819.11	4211.00
819.55	4155.00
819.98	4201.00
820.42	4314.00
820.85	4355.00
821.29	4342.00
821.72	4307.00
822.16	4253.00
822.59	4051.00
823.03	3860.00
823.46	3973.00
823.90	4224.00
824.33	4249.00
824.77	4343.00
825.20	4372.00
825.63	4333.00
826.07	4285.00
826.50	4342.00
826.94	4376.00
827.37	4261.00
827.81	4170.00
828.24	4135.00
828.68	4218.00
829.11	4173.00
829.54	4171.00
829.98	4244.00
830.41	4200.00
830.85	4288.00
831.28	4305.00
831.71	4212.00
832.15	4245.00
832.58	4264.00
833.02	4289.00
833.45	4289.00
833.88	4220.00
834.32	4299.00
834.75	4328.00
835.19	4338.00
835.62	4261.00
836.05	4310.00
836.49	4350.00
836.92	4403.00
837.35	4377.00
837.79	4359.00
838.22	4362.00
838.66	4407.00
839.09	4442.00
839.52	4442.00
839.96	4436.00
840.39	4350.00
840.82	4346.00
841.26	4362.00
841.69	4377.00
842.12	4352.00
842.56	4375.00
842.99	4415.00
843.42	4327.00
843.85	4368.00
844.29	4354.00
844.72	4398.00
845.15	4413.00
845.59	4438.00
846.02	4410.00
846.45	4426.00
846.88	4405.00
847.32	4391.00
847.75	4367.00
848.18	4352.00
848.62	4384.00
849.05	4333.00
849.48	4276.00
849.91	4178.00
850.35	4267.00
850.78	4309.00
851.21	4301.00
851.64	4303.00
852.08	4385.00
852.51	4343.00
852.94	4353.00
853.37	4313.00
853.80	4143.00
854.24	3941.00
854.67	4089.00
855.10	4221.00
855.53	4241.00
855.97	4308.00
856.40	4285.00
856.83	4301.00
857.26	4317.00
857.69	4323.00
858.13	4325.00
858.56	4327.00
858.99	4346.00
859.42	4325.00
859.85	4352.00
860.28	4374.00
860.72	4413.00
861.15	4328.00
861.58	4340.00
862.01	4293.00
862.44	4296.00
862.87	4310.00
863.30	4291.00
863.74	4282.00
864.17	4244.00
864.60	4296.00
865.03	4274.00
865.46	4217.00
865.89	4088.00
866.32	4027.00
866.75	4140.00
867.19	4280.00
867.62	4309.00
868.05	4275.00
868.48	4301.00
868.91	4234.00
869.34	4319.00
869.77	4250.00
870.20	4282.00
870.63	4202.00
871.06	4238.00
871.49	4218.00
871.93	4252.00
872.36	4259.00
872.79	4234.00
873.22	4226.00
873.65	4227.00
874.08	4270.00
874.51	4209.00
874.94	4235.00
875.37	4238.00
875.80	4252.00
876.23	4235.00
876.66	4255.00
877.09	4210.00
877.52	4241.00
877.95	4206.00
878.38	4179.00
878.81	4196.00
879.24	4184.00
879.67	4196.00
880.10	4196.00
880.53	4104.00
880.96	4150.00
881.39	4166.00
881.82	4159.00
882.25	4197.00
882.68	4234.00
883.11	4253.00
883.54	4230.00
883.97	4231.00
884.40	4187.00
884.83	4206.00
885.26	4172.00
885.69	4159.00
886.12	4111.00
886.55	4157.00
886.98	4146.00
887.40	4173.00
887.83	4147.00
888.26	4171.00
888.69	4190.00
889.12	4163.00
889.55	4156.00
889.98	4187.00
890.41	4169.00
890.84	4170.00
891.27	4175.00
891.70	4144.00
892.12	4099.00
892.55	4069.00
892.98	4055.00
893.41	4056.00
893.84	4051.00
894.27	4004.00
894.70	3939.00
895.13	3884.00
895.55	3937.00
895.98	3835.00
896.41	3794.00
896.84	3777.00
897.27	3769.00
897.70	3793.00
898.13	3803.00
898.55	3610.00
898.98	3593.00
899.41	3780.00
899.84	3727.00
900.27	3665.00
900.70	3692.00
901.12	3703.00
901.55	3688.00
901.98	3731.00
902.41	3722.00
902.84	3825.00
903.26	3909.00
903.69	3931.00
904.12	3878.00
904.55	3904.00
904.97	3891.00
905.40	3870.00
905.83	3785.00
906.26	3779.00
906.69	3721.00
907.11	3692.00
907.54	3661.00
907.97	3710.00
908.40	3635.00
908.82	3632.00
909.25	3635.00
909.68	3628.00
910.10	3641.00
910.53	3646.00
910.96	3740.00
911.39	3679.00
911.81	3672.00
912.24	3696.00
912.67	3570.00
913.09	3528.00
913.52	3578.00
913.95	3685.00
914.38	3692.00
914.80	3531.00
915.23	3518.00
915.66	3629.00
916.08	3715.00
916.51	3685.00
916.94	3557.00
917.36	3581.00
917.79	3647.00
918.22	3704.00
918.64	3724.00
919.07	3690.00
919.50	3714.00
919.92	3803.00
920.35	3724.00
920.78	3703.00
921.20	3662.00
921.63	3737.00
922.05	3715.00
922.48	3717.00
922.91	3685.00
923.33	3665.00
923.76	3634.00
924.18	3643.00
924.61	3657.00
925.04	3645.00
925.46	3615.00
925.89	3629.00
926.31	3651.00
926.74	3556.00
927.17	3513.00
927.59	3412.00
928.02	3381.00
928.44	3347.00
928.87	3335.00
929.29	3252.00
929.72	3213.00
930.15	3181.00
930.57	3142.00
931.00	3075.00
931.42	2998.00
931.85	2963.00
932.27	2990.00
932.70	2959.00
933.12	2864.00
933.55	2837.00
933.97	2843.00
934.40	2935.00
934.82	2911.00
935.25	2859.00
935.67	2885.00
936.10	2872.00
936.52	2840.00
936.95	2850.00
937.37	2840.00
937.80	2872.00
938.22	2954.00
938.65	3040.00
939.07	3038.00
939.50	2986.00
939.92	2941.00
940.35	2921.00
940.77	2929.00
941.19	2920.00
941.62	2932.00
942.04	2877.00
942.47	2859.00
942.89	2921.00
943.32	2833.00
943.74	2817.00
944.16	2891.00
944.59	2898.00
945.01	2857.00
945.44	2864.00
945.86	2858.00
946.29	2905.00
946.71	2899.00
947.13	2891.00
947.56	2879.00
947.98	2925.00
948.40	2978.00
948.83	2898.00
949.25	2846.00
949.68	2903.00
950.10	3014.00
950.52	3054.00
950.95	2963.00
951.37	2889.00
951.79	2887.00
952.22	2928.00
952.64	3005.00
953.06	3013.00
953.49	2993.00
953.91	2950.00
954.33	2991.00
954.76	2960.00
955.18	3019.00
955.60	2994.00
956.03	2960.00
956.45	3048.00
956.87	3124.00
957.30	3060.00
957.72	3083.00
958.14	2983.00
958.56	2984.00
958.99	3010.00
959.41	3114.00
959.83	3095.00
960.26	3097.00
960.68	3149.00
961.10	3110.00
961.52	3094.00
961.95	3111.00
962.37	3196.00
962.79	3146.00
963.21	3149.00
963.64	3185.00
964.06	3169.00
964.48	3228.00
964.90	3222.00
965.32	3166.00
965.75	3182.00
966.17	3209.00
966.59	3296.00
967.01	3295.00
967.44	3316.00
967.86	3309.00
968.28	3369.00
968.70	3380.00
969.12	3342.00
969.54	3372.00
969.97	3372.00
970.39	3376.00
970.81	3397.00
971.23	3333.00
971.65	3339.00
972.07	3299.00
972.50	3276.00
972.92	3279.00
973.34	3268.00
973.76	3270.00
974.18	3275.00
974.60	3265.00
975.02	3257.00
975.45	3264.00
975.87	3314.00
976.29	3330.00
976.71	3282.00
977.13	3290.00
977.55	3313.00
977.97	3301.00
978.39	3289.00
978.81	3319.00
979.24	3280.00
979.66	3362.00
980.08	3353.00
980.50	3353.00
980.92	3367.00
981.34	3373.00
981.76	3345.00
982.18	3343.00
982.60	3372.00
983.02	3351.00
983.44	3378.00
983.86	3373.00
984.28	3337.00
984.70	3380.00
985.12	3378.00
985.54	3349.00
985.96	3323.00
986.38	3356.00
986.80	3340.00
987.23	3349.00
987.65	3333.00
988.07	3356.00
988.49	3324.00
988.91	3350.00
989.33	3334.00
989.74	3292.00
990.16	3329.00
990.58	3319.00
991.00	3345.00
991.42	3336.00
991.84	3326.00
992.26	3323.00
992.68	3342.00
993.10	3347.00
993.52	3311.00
993.94	3304.00
994.36	3325.00
994.78	3302.00
995.20	3291.00
995.62	3302.00
996.04	3306.00
996.46	3322.00
996.88	3298.00
997.30	3331.00
997.71	3323.00
998.13	3346.00
998.55	3328.00
998.97	3318.00
999.39	3349.00
999.81	3348.00
1000.23	3352.00
1000.65	3329.00
1001.07	3348.00
1001.49	3352.00
1001.90	3306.00
1002.32	3340.00
1002.74	3298.00
1003.16	3292.00
1003.58	3295.00
1004.00	3304.00
1004.42	3276.00
1004.83	3316.00
1005.25	3289.00
1005.67	3301.00
1006.09	3295.00
1006.51	3291.00
1006.92	3271.00
1007.34	3287.00
1007.76	3273.00
1008.18	3264.00
1008.60	3293.00
1009.02	3267.00
1009.43	3270.00
1009.85	3248.00
1010.27	3276.00
1010.69	3273.00
1011.10	3263.00
1011.52	3230.00
1011.94	3251.00
1012.36	3247.00
1012.78	3265.00
1013.19	3250.00
1013.61	3221.00
1014.03	3227.00
1014.45	3226.00
1014.86	3234.00
1015.28	3214.00
1015.70	3205.00
1016.12	3202.00
1016.53	3202.00
1016.95	3196.00
1017.37	3170.00
1017.78	3191.00
1018.20	3160.00
1018.62	3170.00
1019.03	3150.00
1019.45	3142.00
1019.87	3142.00
1020.29	3136.00
1020.70	3162.00
1021.12	3147.00
1021.54	3132.00
1021.95	3129.00
1022.37	3110.00
1022.79	3140.00
1023.20	3141.00
1023.62	3106.00
1024.04	3126.00
1024.45	3103.00
1024.87	3112.00
1025.28	3118.00
1025.70	3108.00
1026.12	3085.00
1026.53	3096.00
1026.95	3077.00
1027.37	3058.00
1027.78	3075.00
1028.20	3079.00
1028.61	3069.00
1029.03	3063.00
1029.45	3041.00
1029.86	3045.00
1030.28	3024.00
1030.69	3006.00
1031.11	3020.00
1031.53	3002.00
1031.94	3006.00
1032.36	3029.00
1032.77	3026.00
1033.19	2994.00
1033.60	3012.00
1034.02	2995.00
1034.43	3010.00
1034.85	2999.00
1035.27	2986.00
1035.68	2982.00
1036.10	2988.00
1036.51	2975.00
1036.93	2949.00
1037.34	2981.00
1037.76	2967.00
1038.17	2969.00
1038.59	2940.00
1039.00	2956.00
1039.42	2989.00
1039.83	2951.00
1040.25	2944.00
1040.66	2942.00
1041.08	2933.00
1041.49	2931.00
1041.91	2934.00
1042.32	2912.00
1042.73	2912.00
1043.15	2915.00
1043.56	2905.00
1043.98	2895.00
1044.39	2879.00
1044.81	2887.00
1045.22	2871.00
1045.64	2872.00
1046.05	2886.00
1046.46	2893.00
1046.88	2890.00
1047.29	2875.00
1047.71	2883.00
1048.12	2883.00
1048.53	2870.00
1048.95	2867.00
1049.36	2859.00
1049.78	2871.00
1050.19	2867.00
1050.60	2855.00
1051.02	2858.00
1051.43	2834.00
1051.85	2849.00
1052.26	2842.00
1052.67	2847.00
1053.09	2830.00
1053.50	2841.00
1053.91	2826.00
1054.33	2823.00
1054.74	2803.00
1055.15	2841.00
1055.57	2815.00
1055.98	2816.00
1056.39	2811.00
1056.81	2796.00
1057.22	2794.00
1057.63	2800.00
1058.05	2792.00
1058.46	2797.00
1058.87	2783.00
1059.28	2792.00
1059.70	2792.00
1060.11	2782.00
1060.52	2787.00
1060.94	2768.00
1061.35	2774.00
1061.76	2774.00
1062.17	2782.00
1062.59	2770.00
1063.00	2774.00
1063.41	2776.00
1063.82	2760.00
1064.24	2747.00
1064.65	2744.00
1065.06	2753.00
1065.47	2765.00
1065.89	2760.00
1066.30	2742.00
1066.71	2744.00
1067.12	2746.00
1067.53	2751.00
1067.95	2735.00
1068.36	2744.00
1068.77	2745.00
1069.18	2743.00
1069.59	2724.00
1070.00	2723.00
1070.42	2714.00
1070.83	2723.00
1071.24	2724.00
1071.65	2724.00
1072.06	2723.00
1072.47	2705.00
1072.89	2708.00
1073.30	2721.00
1073.71	2719.00
1074.12	2703.00
1074.53	2708.00
1074.94	2712.00
1075.35	2698.00
1075.77	2710.00
1076.18	2701.00
1076.59	2715.00
1077.00	2704.00
1077.41	2708.00
1077.82	2695.00
1078.23	2704.00
1078.64	2695.00
1079.05	2698.00
1079.46	2696.00
1079.87	2703.00
1080.29	2699.00
1080.70	2679.00
1081.11	2700.00
1081.52	2681.00
1081.93	2681.00
1082.34	2684.00
1082.75	2679.00
1083.16	2671.00
1083.57	2679.00
1083.98	2675.00
1084.39	2681.00
1084.80	2672.00
1085.21	2682.00
1085.62	2668.00
1086.03	2693.00
1086.44	2669.00
1086.85	2666.00
1087.26	2675.00
1087.67	2668.00
1088.08	2664.00
1088.49	2657.00
1088.90	2660.00
1089.31	2670.00
1089.72	2655.00
1090.13	2664.00
1090.54	2672.00
1090.95	2657.00
1091.36	2659.00
1091.77	2641.00
1092.18	2644.00
1092.59	2658.00
1093.00	2651.00
1093.40	2655.00
1093.81	2640.00
1094.22	2649.00
1094.63	2647.00
1095.04	2641.00
1095.45	2647.00
1095.86	2640.00
1096.27	2638.00
1096.68	2638.00
1097.09	2632.00
1097.50	2633.00
1097.90	2642.00
1098.31	2626.00
1098.72	2635.00
1099.13	2636.00
1099.54	2622.00
1099.95	2624.00
1100.36	2624.00
1100.76	2627.00
1101.17	2631.00
1101.58	2622.00
1101.99	2623.00
1102.40	2629.00
1102.81	2624.00
1103.22	2610.00
1103.62	2624.00
1104.03	2618.00
1104.44	2612.00
1104.85	2615.00
1105.26	2613.00
1105.66	2617.00
1106.07	2623.00
1106.48	2607.00
1106.89	2615.00
1107.30	2612.00
1107.70	2612.00
1108.11	2613.00
1108.52	2612.00
1108.93	2620.00
1109.33	2609.00
1109.74	2602.00
1110.15	2610.00
1110.56	2607.00
1110.96	2607.00
1111.37	2609.00
1111.78	2600.00
1112.19	2611.00
1112.59	2608.00
1113.00	2615.00
1113.41	2608.00
1113.81	2605.00
1114.22	2605.00
1114.63	2572.00
1115.03	2572.00
1115.44	2577.00
1115.85	2572.00
>>>>>End Processed Spectral Data<<<<<
