SpectraSuite Data File
++++++++++++++++++++++++++++++++++++
Date: Thu Aug 05 09:52:32 EEST 2021
User: CanSEE
Dark Spectrum Present: No
Reference Spectrum Present: No
Number of Sampled Component Spectra: 1
Spectrometers: MAYP112785
Integration Time (usec): 10000 (MAYP112785)
Spectra Averaged: 1 (MAYP112785)
Boxcar Smoothing: 0 (MAYP112785)
Correct for Electrical Dark: No (MAYP112785)
Strobe/Lamp Enabled: No (MAYP112785)
Correct for Detector Non-linearity: No (MAYP112785)
Correct for Stray Light: No (MAYP112785)
Number of Pixels in Processed Spectrum: 2068
>>>>>Begin Processed Spectral Data<<<<<
198.35	3439.00
198.82	2479.00
199.30	2569.00
199.77	2556.00
200.24	2579.00
200.71	2583.00
201.18	2586.00
201.65	2588.00
202.13	2582.00
202.60	2584.00
203.07	2583.00
203.54	2582.00
204.01	2582.00
204.48	2591.00
204.96	2577.00
205.43	2582.00
205.90	2577.00
206.37	2587.00
206.84	2577.00
207.31	2578.00
207.78	2580.00
208.26	2584.00
208.73	2581.00
209.20	2579.00
209.67	2587.00
210.14	2588.00
210.61	2584.00
211.08	2586.00
211.56	2586.00
212.03	2581.00
212.50	2584.00
212.97	2581.00
213.44	2579.00
213.91	2580.00
214.38	2585.00
214.85	2577.00
215.33	2580.00
215.80	2582.00
216.27	2583.00
216.74	2582.00
217.21	2582.00
217.68	2587.00
218.15	2580.00
218.62	2586.00
219.09	2581.00
219.57	2588.00
220.04	2582.00
220.51	2577.00
220.98	2582.00
221.45	2586.00
221.92	2581.00
222.39	2580.00
222.86	2587.00
223.33	2585.00
223.80	2590.00
224.27	2585.00
224.74	2582.00
225.22	2586.00
225.69	2581.00
226.16	2582.00
226.63	2577.00
227.10	2591.00
227.57	2576.00
228.04	2578.00
228.51	2583.00
228.98	2586.00
229.45	2578.00
229.92	2588.00
230.39	2585.00
230.86	2589.00
231.33	2576.00
231.80	2589.00
232.27	2581.00
232.75	2583.00
233.22	2578.00
233.69	2586.00
234.16	2586.00
234.63	2582.00
235.10	2580.00
235.57	2581.00
236.04	2586.00
236.51	2577.00
236.98	2579.00
237.45	2581.00
237.92	2591.00
238.39	2576.00
238.86	2573.00
239.33	2638.00
239.80	2577.00
240.27	2580.00
240.74	2580.00
241.21	2574.00
241.68	2583.00
242.15	2582.00
242.62	2582.00
243.09	2586.00
243.56	2587.00
244.03	2588.00
244.50	2580.00
244.97	2582.00
245.44	2596.00
245.91	2581.00
246.38	2581.00
246.85	2591.00
247.32	2575.00
247.79	2585.00
248.26	2582.00
248.73	2583.00
249.20	2587.00
249.67	2586.00
250.14	2578.00
250.61	2585.00
251.08	2585.00
251.55	2582.00
252.02	2584.00
252.49	2572.00
252.96	2582.00
253.43	2578.00
253.90	2588.00
254.37	2584.00
254.84	2580.00
255.31	2581.00
255.77	2585.00
256.24	2579.00
256.71	2582.00
257.18	2591.00
257.65	2581.00
258.12	2577.00
258.59	2583.00
259.06	2579.00
259.53	2589.00
260.00	2586.00
260.47	2585.00
260.94	2590.00
261.41	2584.00
261.88	2583.00
262.35	2584.00
262.81	2583.00
263.28	2591.00
263.75	2589.00
264.22	2580.00
264.69	2588.00
265.16	2577.00
265.63	2585.00
266.10	2578.00
266.57	2584.00
267.04	2582.00
267.51	2584.00
267.97	2579.00
268.44	2582.00
268.91	2582.00
269.38	2587.00
269.85	2584.00
270.32	2575.00
270.79	2583.00
271.26	2583.00
271.73	2587.00
272.19	2585.00
272.66	2580.00
273.13	2579.00
273.60	2578.00
274.07	2583.00
274.54	2584.00
275.01	2585.00
275.48	2588.00
275.94	2583.00
276.41	2587.00
276.88	2583.00
277.35	2586.00
277.82	2583.00
278.29	2583.00
278.76	2578.00
279.22	2588.00
279.69	2590.00
280.16	2590.00
280.63	2578.00
281.10	2587.00
281.57	2585.00
282.04	2584.00
282.50	2582.00
282.97	2585.00
283.44	2587.00
283.91	2581.00
284.38	2592.00
284.85	2588.00
285.31	2583.00
285.78	2589.00
286.25	2574.00
286.72	2583.00
287.19	2583.00
287.65	2586.00
288.12	2589.00
288.59	2579.00
289.06	2582.00
289.53	2574.00
289.99	2583.00
290.46	2587.00
290.93	2583.00
291.40	2574.00
291.87	2578.00
292.33	2595.00
292.80	2588.00
293.27	2584.00
293.74	2587.00
294.21	2583.00
294.67	2581.00
295.14	2583.00
295.61	2594.00
296.08	2585.00
296.54	2582.00
297.01	2580.00
297.48	2588.00
297.95	2583.00
298.42	2583.00
298.88	2581.00
299.35	2586.00
299.82	2580.00
300.29	2588.00
300.75	2574.00
301.22	2581.00
301.69	2588.00
302.16	2582.00
302.62	2584.00
303.09	2588.00
303.56	2589.00
304.03	2589.00
304.49	2585.00
304.96	2592.00
305.43	2584.00
305.90	2585.00
306.36	2588.00
306.83	2592.00
307.30	2590.00
307.76	2598.00
308.23	2590.00
308.70	2592.00
309.17	2593.00
309.63	2596.00
310.10	2597.00
310.57	2606.00
311.03	2608.00
311.50	2613.00
311.97	2622.00
312.44	2621.00
312.90	2616.00
313.37	2619.00
313.84	2623.00
314.30	2630.00
314.77	2630.00
315.24	2622.00
315.70	2638.00
316.17	2627.00
316.64	2638.00
317.10	2655.00
317.57	2646.00
318.04	2643.00
318.50	2654.00
318.97	2658.00
319.44	2655.00
319.90	2658.00
320.37	2668.00
320.84	2677.00
321.30	2655.00
321.77	2688.00
322.24	2668.00
322.70	2675.00
323.17	2675.00
323.64	2675.00
324.10	2708.00
324.57	2706.00
325.04	2707.00
325.50	2726.00
325.97	2735.00
326.44	2754.00
326.90	2750.00
327.37	2757.00
327.84	2751.00
328.30	2750.00
328.77	2750.00
329.23	2769.00
329.70	2798.00
330.17	2774.00
330.63	2770.00
331.10	2756.00
331.56	2753.00
332.03	2760.00
332.50	2782.00
332.96	2774.00
333.43	2776.00
333.90	2763.00
334.36	2774.00
334.83	2787.00
335.29	2800.00
335.76	2779.00
336.22	2761.00
336.69	2747.00
337.16	2777.00
337.62	2754.00
338.09	2780.00
338.55	2781.00
339.02	2799.00
339.49	2822.00
339.95	2816.00
340.42	2811.00
340.88	2820.00
341.35	2816.00
341.81	2802.00
342.28	2820.00
342.75	2835.00
343.21	2829.00
343.68	2804.00
344.14	2806.00
344.61	2796.00
345.07	2799.00
345.54	2832.00
346.00	2841.00
346.47	2833.00
346.93	2843.00
347.40	2841.00
347.87	2827.00
348.33	2839.00
348.80	2843.00
349.26	2855.00
349.73	2829.00
350.19	2876.00
350.66	2872.00
351.12	2876.00
351.59	2862.00
352.05	2868.00
352.52	2861.00
352.98	2862.00
353.45	2899.00
353.91	2902.00
354.38	2902.00
354.84	2937.00
355.31	2906.00
355.77	2883.00
356.24	2878.00
356.70	2858.00
357.17	2855.00
357.63	2844.00
358.10	2834.00
358.56	2820.00
359.03	2819.00
359.49	2884.00
359.96	2897.00
360.42	2915.00
360.89	2884.00
361.35	2897.00
361.82	2882.00
362.28	2898.00
362.75	2934.00
363.21	2941.00
363.67	2923.00
364.14	2920.00
364.60	2946.00
365.07	2935.00
365.53	2950.00
366.00	2970.00
366.46	2988.00
366.93	2995.00
367.39	3010.00
367.86	2989.00
368.32	2983.00
368.78	2971.00
369.25	2982.00
369.71	3012.00
370.18	3020.00
370.64	3007.00
371.11	2963.00
371.57	3000.00
372.03	2960.00
372.50	2957.00
372.96	2936.00
373.43	2939.00
373.89	2923.00
374.35	2928.00
374.82	2952.00
375.28	2964.00
375.75	3010.00
376.21	3004.00
376.67	3026.00
377.14	3059.00
377.60	3080.00
378.07	3077.00
378.53	3114.00
378.99	3081.00
379.46	3059.00
379.92	3042.00
380.39	3042.00
380.85	3055.00
381.31	3052.00
381.78	2992.00
382.24	2965.00
382.70	2932.00
383.17	2909.00
383.63	2923.00
384.09	2963.00
384.56	2992.00
385.02	3044.00
385.48	3044.00
385.95	3032.00
386.41	2997.00
386.88	3050.00
387.34	3043.00
387.80	3068.00
388.27	3085.00
388.73	3083.00
389.19	3123.00
389.66	3150.00
390.12	3185.00
390.58	3201.00
391.05	3173.00
391.51	3188.00
391.97	3145.00
392.43	3086.00
392.90	3032.00
393.36	2993.00
393.82	2972.00
394.29	3047.00
394.75	3149.00
395.21	3159.00
395.68	3171.00
396.14	3166.00
396.60	3111.00
397.07	3078.00
397.53	3121.00
397.99	3271.00
398.45	3398.00
398.92	3408.00
399.38	3505.00
399.84	3489.00
400.31	3518.00
400.77	3511.00
401.23	3519.00
401.69	3553.00
402.16	3570.00
402.62	3561.00
403.08	3568.00
403.54	3546.00
404.01	3549.00
404.47	3586.00
404.93	3535.00
405.39	3570.00
405.86	3577.00
406.32	3546.00
406.78	3542.00
407.24	3569.00
407.71	3582.00
408.17	3622.00
408.63	3613.00
409.09	3606.00
409.56	3641.00
410.02	3595.00
410.48	3571.00
410.94	3617.00
411.40	3722.00
411.87	3737.00
412.33	3737.00
412.79	3733.00
413.25	3692.00
413.71	3720.00
414.18	3731.00
414.64	3701.00
415.10	3719.00
415.56	3754.00
416.02	3755.00
416.49	3749.00
416.95	3775.00
417.41	3768.00
417.87	3762.00
418.33	3734.00
418.80	3736.00
419.26	3782.00
419.72	3746.00
420.18	3754.00
420.64	3756.00
421.10	3822.00
421.57	3827.00
422.03	3815.00
422.49	3809.00
422.95	3778.00
423.41	3730.00
423.87	3779.00
424.34	3796.00
424.80	3810.00
425.26	3811.00
425.72	3759.00
426.18	3797.00
426.64	3781.00
427.10	3774.00
427.57	3758.00
428.03	3762.00
428.49	3716.00
428.95	3682.00
429.41	3677.00
429.87	3632.00
430.33	3603.00
430.79	3603.00
431.26	3658.00
431.72	3750.00
432.18	3940.00
432.64	3895.00
433.10	3852.00
433.56	3931.00
434.02	3885.00
434.48	3870.00
434.94	3937.00
435.40	3981.00
435.87	4021.00
436.33	4017.00
436.79	4014.00
437.25	3998.00
437.71	3990.00
438.17	3961.00
438.63	3941.00
439.09	3929.00
439.55	4029.00
440.01	4042.00
440.47	4079.00
440.93	4051.00
441.39	4129.00
441.85	4187.00
442.32	4210.00
442.78	4229.00
443.24	4154.00
443.70	4244.00
444.16	4224.00
444.62	4211.00
445.08	4235.00
445.54	4255.00
446.00	4158.00
446.46	4181.00
446.92	4232.00
447.38	4319.00
447.84	4304.00
448.30	4349.00
448.76	4325.00
449.22	4386.00
449.68	4373.00
450.14	4405.00
450.60	4481.00
451.06	4462.00
451.52	4436.00
451.98	4383.00
452.44	4417.00
452.90	4406.00
453.36	4295.00
453.82	4367.00
454.28	4404.00
454.74	4448.00
455.20	4454.00
455.66	4414.00
456.12	4478.00
456.58	4491.00
457.04	4494.00
457.50	4499.00
457.96	4520.00
458.42	4480.00
458.88	4413.00
459.34	4465.00
459.80	4523.00
460.26	4512.00
460.72	4542.00
461.18	4560.00
461.64	4608.00
462.10	4555.00
462.55	4547.00
463.01	4556.00
463.47	4577.00
463.93	4606.00
464.39	4551.00
464.85	4538.00
465.31	4551.00
465.77	4513.00
466.23	4527.00
466.69	4504.00
467.15	4532.00
467.61	4564.00
468.07	4584.00
468.52	4568.00
468.98	4540.00
469.44	4571.00
469.90	4538.00
470.36	4564.00
470.82	4550.00
471.28	4615.00
471.74	4662.00
472.20	4621.00
472.66	4701.00
473.11	4631.00
473.57	4603.00
474.03	4639.00
474.49	4688.00
474.95	4695.00
475.41	4679.00
475.87	4667.00
476.33	4656.00
476.78	4723.00
477.24	4707.00
477.70	4700.00
478.16	4740.00
478.62	4770.00
479.08	4773.00
479.54	4769.00
479.99	4765.00
480.45	4802.00
480.91	4764.00
481.37	4788.00
481.83	4824.00
482.29	4848.00
482.74	4750.00
483.20	4768.00
483.66	4793.00
484.12	4777.00
484.58	4684.00
485.04	4638.00
485.49	4610.00
485.95	4471.00
486.41	4539.00
486.87	4519.00
487.33	4588.00
487.78	4714.00
488.24	4680.00
488.70	4736.00
489.16	4750.00
489.62	4784.00
490.07	4809.00
490.53	4873.00
490.99	4779.00
491.45	4748.00
491.90	4780.00
492.36	4750.00
492.82	4710.00
493.28	4827.00
493.74	4833.00
494.19	4879.00
494.65	4831.00
495.11	4932.00
495.57	4890.00
496.02	4840.00
496.48	4864.00
496.94	4864.00
497.40	4831.00
497.85	4809.00
498.31	4794.00
498.77	4836.00
499.23	4808.00
499.68	4881.00
500.14	4841.00
500.60	4761.00
501.06	4707.00
501.51	4748.00
501.97	4788.00
502.43	4760.00
502.88	4785.00
503.34	4865.00
503.80	4831.00
504.26	4800.00
504.71	4832.00
505.17	4857.00
505.63	4904.00
506.08	4907.00
506.54	4951.00
507.00	4882.00
507.45	4816.00
507.91	4807.00
508.37	4866.00
508.82	4862.00
509.28	4914.00
509.74	4887.00
510.19	4946.00
510.65	4935.00
511.11	4941.00
511.56	4910.00
512.02	4979.00
512.48	4962.00
512.93	4944.00
513.39	4879.00
513.85	4879.00
514.30	4891.00
514.76	4891.00
515.22	4890.00
515.67	4903.00
516.13	4796.00
516.59	4757.00
517.04	4715.00
517.50	4639.00
517.95	4675.00
518.41	4781.00
518.87	4773.00
519.32	4912.00
519.78	4924.00
520.24	4905.00
520.69	4945.00
521.15	4923.00
521.60	4990.00
522.06	4891.00
522.52	4950.00
522.97	4928.00
523.43	4970.00
523.88	5020.00
524.34	5055.00
524.80	5037.00
525.25	5062.00
525.71	4975.00
526.16	4941.00
526.62	4935.00
527.07	4863.00
527.53	4906.00
527.99	4951.00
528.44	5102.00
528.90	5081.00
529.35	5100.00
529.81	5103.00
530.26	5140.00
530.72	5123.00
531.17	5131.00
531.63	5112.00
532.09	5094.00
532.54	5056.00
533.00	5008.00
533.45	5026.00
533.91	5045.00
534.36	5063.00
534.82	5097.00
535.27	5183.00
535.73	5162.00
536.18	5132.00
536.64	5130.00
537.09	5174.00
537.55	5086.00
538.00	5081.00
538.46	5105.00
538.91	5101.00
539.37	5099.00
539.82	5031.00
540.28	4982.00
540.73	5035.00
541.19	5048.00
541.64	5059.00
542.10	5102.00
542.55	5098.00
543.01	5079.00
543.46	5131.00
543.92	5122.00
544.37	5167.00
544.83	5093.00
545.28	5194.00
545.74	5136.00
546.19	5157.00
546.64	5182.00
547.10	5113.00
547.55	5164.00
548.01	5138.00
548.46	5132.00
548.92	5186.00
549.37	5141.00
549.83	5190.00
550.28	5175.00
550.73	5191.00
551.19	5186.00
551.64	5209.00
552.10	5167.00
552.55	5200.00
553.00	5218.00
553.46	5183.00
553.91	5210.00
554.37	5178.00
554.82	5235.00
555.28	5195.00
555.73	5220.00
556.18	5220.00
556.64	5169.00
557.09	5217.00
557.54	5163.00
558.00	5087.00
558.45	5083.00
558.91	5119.00
559.36	5071.00
559.81	5084.00
560.27	5176.00
560.72	5184.00
561.17	5152.00
561.63	5176.00
562.08	5150.00
562.54	5175.00
562.99	5187.00
563.44	5192.00
563.90	5179.00
564.35	5220.00
564.80	5184.00
565.26	5144.00
565.71	5126.00
566.16	5178.00
566.62	5072.00
567.07	5135.00
567.52	5166.00
567.98	5132.00
568.43	5148.00
568.88	5142.00
569.34	5146.00
569.79	5080.00
570.24	5083.00
570.69	5094.00
571.15	5085.00
571.60	5075.00
572.05	5172.00
572.51	5162.00
572.96	5197.00
573.41	5254.00
573.86	5212.00
574.32	5214.00
574.77	5195.00
575.22	5136.00
575.68	5140.00
576.13	5170.00
576.58	5207.00
577.03	5177.00
577.49	5139.00
577.94	5157.00
578.39	5174.00
578.84	5135.00
579.30	5178.00
579.75	5177.00
580.20	5246.00
580.65	5158.00
581.11	5215.00
581.56	5260.00
582.01	5260.00
582.46	5245.00
582.92	5291.00
583.37	5297.00
583.82	5281.00
584.27	5274.00
584.72	5288.00
585.18	5262.00
585.63	5210.00
586.08	5246.00
586.53	5218.00
586.98	5295.00
587.44	5270.00
587.89	5219.00
588.34	5114.00
588.79	5020.00
589.24	4971.00
589.70	4985.00
590.15	5024.00
590.60	5093.00
591.05	5102.00
591.50	5153.00
591.96	5150.00
592.41	5215.00
592.86	5167.00
593.31	5174.00
593.76	5138.00
594.21	5185.00
594.66	5145.00
595.12	5139.00
595.57	5138.00
596.02	5202.00
596.47	5231.00
596.92	5191.00
597.37	5179.00
597.82	5231.00
598.28	5194.00
598.73	5194.00
599.18	5225.00
599.63	5195.00
600.08	5259.00
600.53	5203.00
600.98	5202.00
601.43	5208.00
601.88	5177.00
602.34	5164.00
602.79	5160.00
603.24	5195.00
603.69	5242.00
604.14	5275.00
604.59	5293.00
605.04	5239.00
605.49	5245.00
605.94	5253.00
606.39	5252.00
606.84	5285.00
607.30	5261.00
607.75	5300.00
608.20	5244.00
608.65	5209.00
609.10	5249.00
609.55	5272.00
610.00	5226.00
610.45	5216.00
610.90	5271.00
611.35	5230.00
611.80	5194.00
612.25	5292.00
612.70	5274.00
613.15	5209.00
613.60	5210.00
614.05	5210.00
614.50	5271.00
614.95	5220.00
615.40	5241.00
615.85	5167.00
616.30	5159.00
616.75	5126.00
617.20	5245.00
617.65	5191.00
618.10	5242.00
618.55	5253.00
619.00	5260.00
619.45	5263.00
619.90	5295.00
620.35	5322.00
620.80	5295.00
621.25	5295.00
621.70	5231.00
622.15	5249.00
622.60	5232.00
623.05	5198.00
623.50	5219.00
623.95	5164.00
624.40	5174.00
624.85	5172.00
625.30	5130.00
625.75	5160.00
626.20	5186.00
626.65	5220.00
627.10	5208.00
627.55	5155.00
627.99	5128.00
628.44	5103.00
628.89	5125.00
629.34	5164.00
629.79	5155.00
630.24	5123.00
630.69	5176.00
631.14	5163.00
631.59	5119.00
632.04	5195.00
632.49	5213.00
632.94	5259.00
633.38	5298.00
633.83	5244.00
634.28	5193.00
634.73	5192.00
635.18	5233.00
635.63	5216.00
636.08	5312.00
636.53	5257.00
636.97	5301.00
637.42	5306.00
637.87	5314.00
638.32	5373.00
638.77	5372.00
639.22	5294.00
639.67	5269.00
640.11	5301.00
640.56	5263.00
641.01	5258.00
641.46	5332.00
641.91	5234.00
642.36	5288.00
642.81	5296.00
643.25	5310.00
643.70	5289.00
644.15	5322.00
644.60	5313.00
645.05	5310.00
645.49	5274.00
645.94	5248.00
646.39	5246.00
646.84	5212.00
647.29	5238.00
647.73	5223.00
648.18	5219.00
648.63	5196.00
649.08	5211.00
649.53	5156.00
649.97	5175.00
650.42	5200.00
650.87	5294.00
651.32	5242.00
651.77	5213.00
652.21	5169.00
652.66	5311.00
653.11	5275.00
653.56	5281.00
654.00	5279.00
654.45	5197.00
654.90	5231.00
655.35	5120.00
655.79	4975.00
656.24	4855.00
656.69	4867.00
657.14	4907.00
657.58	5111.00
658.03	5214.00
658.48	5239.00
658.92	5194.00
659.37	5197.00
659.82	5265.00
660.27	5295.00
660.71	5260.00
661.16	5328.00
661.61	5363.00
662.05	5341.00
662.50	5317.00
662.95	5281.00
663.39	5219.00
663.84	5275.00
664.29	5345.00
664.74	5293.00
665.18	5297.00
665.63	5298.00
666.08	5315.00
666.52	5257.00
666.97	5357.00
667.42	5331.00
667.86	5278.00
668.31	5304.00
668.76	5296.00
669.20	5320.00
669.65	5250.00
670.09	5322.00
670.54	5256.00
670.99	5265.00
671.43	5316.00
671.88	5258.00
672.33	5183.00
672.77	5286.00
673.22	5277.00
673.66	5274.00
674.11	5264.00
674.56	5230.00
675.00	5319.00
675.45	5203.00
675.90	5303.00
676.34	5243.00
676.79	5277.00
677.23	5271.00
677.68	5287.00
678.12	5227.00
678.57	5265.00
679.02	5289.00
679.46	5243.00
679.91	5279.00
680.35	5254.00
680.80	5274.00
681.25	5204.00
681.69	5274.00
682.14	5233.00
682.58	5200.00
683.03	5268.00
683.47	5232.00
683.92	5150.00
684.36	5218.00
684.81	5158.00
685.25	5141.00
685.70	5162.00
686.15	5108.00
686.59	4920.00
687.04	4531.00
687.48	4376.00
687.93	4502.00
688.37	4724.00
688.82	4763.00
689.26	4703.00
689.71	4715.00
690.15	4787.00
690.60	4832.00
691.04	4825.00
691.49	4889.00
691.93	4956.00
692.38	4928.00
692.82	4966.00
693.27	4999.00
693.71	4894.00
694.16	4880.00
694.60	4937.00
695.04	4945.00
695.49	4875.00
695.93	4955.00
696.38	5002.00
696.82	5053.00
697.27	5088.00
697.71	5056.00
698.16	5033.00
698.60	4933.00
699.04	4956.00
699.49	4953.00
699.93	4967.00
700.38	4951.00
700.82	4918.00
701.27	4885.00
701.71	4954.00
702.15	4909.00
702.60	4915.00
703.04	4983.00
703.49	4953.00
703.93	4937.00
704.37	5023.00
704.82	5068.00
705.26	5036.00
705.71	4980.00
706.15	4980.00
706.59	5028.00
707.04	5030.00
707.48	5052.00
707.93	5048.00
708.37	5018.00
708.81	5017.00
709.26	5009.00
709.70	5024.00
710.14	5033.00
710.59	5027.00
711.03	4993.00
711.47	4977.00
711.92	5010.00
712.36	5050.00
712.80	4991.00
713.25	5006.00
713.69	4951.00
714.13	4997.00
714.58	4978.00
715.02	4926.00
715.46	4922.00
715.91	4885.00
716.35	4848.00
716.79	4704.00
717.24	4514.00
717.68	4449.00
718.12	4404.00
718.57	4313.00
719.01	4297.00
719.45	4275.00
719.89	4302.00
720.34	4263.00
720.78	4350.00
721.22	4521.00
721.66	4691.00
722.11	4685.00
722.55	4708.00
722.99	4639.00
723.44	4490.00
723.88	4466.00
724.32	4416.00
724.76	4443.00
725.21	4429.00
725.65	4473.00
726.09	4496.00
726.53	4389.00
726.97	4516.00
727.42	4423.00
727.86	4375.00
728.30	4472.00
728.74	4521.00
729.19	4444.00
729.63	4431.00
730.07	4496.00
730.51	4469.00
730.95	4473.00
731.40	4545.00
731.84	4551.00
732.28	4612.00
732.72	4674.00
733.16	4696.00
733.61	4723.00
734.05	4764.00
734.49	4760.00
734.93	4735.00
735.37	4774.00
735.81	4687.00
736.26	4730.00
736.70	4711.00
737.14	4706.00
737.58	4761.00
738.02	4770.00
738.46	4694.00
738.90	4702.00
739.35	4683.00
739.79	4704.00
740.23	4800.00
740.67	4762.00
741.11	4725.00
741.55	4734.00
741.99	4728.00
742.44	4741.00
742.88	4776.00
743.32	4747.00
743.76	4763.00
744.20	4808.00
744.64	4782.00
745.08	4787.00
745.52	4775.00
745.96	4796.00
746.40	4805.00
746.84	4866.00
747.29	4812.00
747.73	4837.00
748.17	4825.00
748.61	4846.00
749.05	4788.00
749.49	4728.00
749.93	4853.00
750.37	4781.00
750.81	4753.00
751.25	4791.00
751.69	4736.00
752.13	4835.00
752.57	4836.00
753.01	4786.00
753.45	4744.00
753.89	4814.00
754.33	4821.00
754.77	4790.00
755.21	4792.00
755.65	4758.00
756.09	4788.00
756.53	4782.00
756.97	4718.00
757.41	4763.00
757.85	4769.00
758.29	4688.00
758.73	4658.00
759.17	4469.00
759.61	3930.00
760.05	3337.00
760.49	2998.00
760.93	2914.00
761.37	3093.00
761.81	3498.00
762.25	3645.00
762.69	3458.00
763.13	3335.00
763.57	3352.00
764.01	3469.00
764.45	3574.00
764.89	3735.00
765.33	3878.00
765.77	3987.00
766.21	4116.00
766.65	4238.00
767.09	4387.00
767.53	4487.00
767.96	4534.00
768.40	4551.00
768.84	4583.00
769.28	4626.00
769.72	4680.00
770.16	4655.00
770.60	4675.00
771.04	4709.00
771.48	4672.00
771.92	4728.00
772.35	4719.00
772.79	4679.00
773.23	4664.00
773.67	4661.00
774.11	4658.00
774.55	4634.00
774.99	4612.00
775.43	4645.00
775.86	4671.00
776.30	4696.00
776.74	4683.00
777.18	4697.00
777.62	4638.00
778.06	4654.00
778.50	4662.00
778.93	4646.00
779.37	4582.00
779.81	4614.00
780.25	4587.00
780.69	4606.00
781.12	4573.00
781.56	4593.00
782.00	4608.00
782.44	4663.00
782.88	4623.00
783.32	4575.00
783.75	4563.00
784.19	4604.00
784.63	4566.00
785.07	4580.00
785.50	4532.00
785.94	4543.00
786.38	4581.00
786.82	4585.00
787.26	4531.00
787.69	4549.00
788.13	4533.00
788.57	4549.00
789.01	4526.00
789.44	4467.00
789.88	4481.00
790.32	4453.00
790.76	4456.00
791.19	4401.00
791.63	4411.00
792.07	4393.00
792.51	4376.00
792.94	4401.00
793.38	4402.00
793.82	4446.00
794.25	4445.00
794.69	4469.00
795.13	4428.00
795.56	4423.00
796.00	4421.00
796.44	4345.00
796.88	4413.00
797.31	4333.00
797.75	4347.00
798.19	4400.00
798.62	4358.00
799.06	4438.00
799.50	4373.00
799.93	4347.00
800.37	4374.00
800.81	4357.00
801.24	4381.00
801.68	4332.00
802.12	4339.00
802.55	4377.00
802.99	4273.00
803.43	4300.00
803.86	4314.00
804.30	4282.00
804.73	4299.00
805.17	4322.00
805.61	4337.00
806.04	4365.00
806.48	4378.00
806.92	4348.00
807.35	4317.00
807.79	4322.00
808.22	4302.00
808.66	4252.00
809.10	4267.00
809.53	4255.00
809.97	4193.00
810.40	4248.00
810.84	4216.00
811.27	4140.00
811.71	4179.00
812.15	4201.00
812.58	4201.00
813.02	4095.00
813.45	3968.00
813.89	3982.00
814.32	3986.00
814.76	3890.00
815.19	3894.00
815.63	3879.00
816.07	3835.00
816.50	3763.00
816.94	3803.00
817.37	3898.00
817.81	3794.00
818.24	3781.00
818.68	3880.00
819.11	3863.00
819.55	3848.00
819.98	3840.00
820.42	3953.00
820.85	4041.00
821.29	4002.00
821.72	3980.00
822.16	3927.00
822.59	3729.00
823.03	3597.00
823.46	3725.00
823.90	3885.00
824.33	3960.00
824.77	4035.00
825.20	4080.00
825.63	4021.00
826.07	3985.00
826.50	4036.00
826.94	4012.00
827.37	3907.00
827.81	3861.00
828.24	3862.00
828.68	3899.00
829.11	3871.00
829.54	3905.00
829.98	3924.00
830.41	3909.00
830.85	3976.00
831.28	3948.00
831.71	3935.00
832.15	3905.00
832.58	4019.00
833.02	3949.00
833.45	3955.00
833.88	3946.00
834.32	3971.00
834.75	4009.00
835.19	4013.00
835.62	3990.00
836.05	4012.00
836.49	3995.00
836.92	4070.00
837.35	4047.00
837.79	4053.00
838.22	4037.00
838.66	4089.00
839.09	4098.00
839.52	4102.00
839.96	4072.00
840.39	4026.00
840.82	4097.00
841.26	4079.00
841.69	4046.00
842.12	3984.00
842.56	4046.00
842.99	4052.00
843.42	4007.00
843.85	4009.00
844.29	4077.00
844.72	4044.00
845.15	4078.00
845.59	4095.00
846.02	4096.00
846.45	4073.00
846.88	4039.00
847.32	4103.00
847.75	4075.00
848.18	4009.00
848.62	4045.00
849.05	4029.00
849.48	3910.00
849.91	3868.00
850.35	3947.00
850.78	4043.00
851.21	4026.00
851.64	3994.00
852.08	4024.00
852.51	3993.00
852.94	4041.00
853.37	4008.00
853.80	3827.00
854.24	3737.00
854.67	3809.00
855.10	3895.00
855.53	3966.00
855.97	4021.00
856.40	3991.00
856.83	4005.00
857.26	4031.00
857.69	4010.00
858.13	4028.00
858.56	4029.00
858.99	4089.00
859.42	4028.00
859.85	4028.00
860.28	4034.00
860.72	4050.00
861.15	4002.00
861.58	4022.00
862.01	4064.00
862.44	3982.00
862.87	3980.00
863.30	4023.00
863.74	4005.00
864.17	4027.00
864.60	4037.00
865.03	3986.00
865.46	3977.00
865.89	3819.00
866.32	3798.00
866.75	3879.00
867.19	3967.00
867.62	3971.00
868.05	4029.00
868.48	3998.00
868.91	3942.00
869.34	3988.00
869.77	3972.00
870.20	3927.00
870.63	3973.00
871.06	3946.00
871.49	3921.00
871.93	4006.00
872.36	3945.00
872.79	3927.00
873.22	3892.00
873.65	3934.00
874.08	3950.00
874.51	3942.00
874.94	3955.00
875.37	3899.00
875.80	3970.00
876.23	3976.00
876.66	3915.00
877.09	3920.00
877.52	3908.00
877.95	3928.00
878.38	3894.00
878.81	3909.00
879.24	3861.00
879.67	3902.00
880.10	3918.00
880.53	3841.00
880.96	3872.00
881.39	3943.00
881.82	3921.00
882.25	3915.00
882.68	3894.00
883.11	3992.00
883.54	3969.00
883.97	3905.00
884.40	3911.00
884.83	3923.00
885.26	3900.00
885.69	3817.00
886.12	3844.00
886.55	3804.00
886.98	3839.00
887.40	3828.00
887.83	3884.00
888.26	3905.00
888.69	3911.00
889.12	3888.00
889.55	3889.00
889.98	3884.00
890.41	3909.00
890.84	3881.00
891.27	3878.00
891.70	3915.00
892.12	3849.00
892.55	3808.00
892.98	3813.00
893.41	3777.00
893.84	3762.00
894.27	3710.00
894.70	3692.00
895.13	3636.00
895.55	3650.00
895.98	3562.00
896.41	3567.00
896.84	3552.00
897.27	3533.00
897.70	3569.00
898.13	3545.00
898.55	3356.00
898.98	3433.00
899.41	3540.00
899.84	3486.00
900.27	3455.00
900.70	3464.00
901.12	3457.00
901.55	3491.00
901.98	3478.00
902.41	3483.00
902.84	3592.00
903.26	3670.00
903.69	3670.00
904.12	3680.00
904.55	3671.00
904.97	3649.00
905.40	3620.00
905.83	3589.00
906.26	3527.00
906.69	3480.00
907.11	3479.00
907.54	3458.00
907.97	3451.00
908.40	3416.00
908.82	3445.00
909.25	3440.00
909.68	3411.00
910.10	3478.00
910.53	3456.00
910.96	3506.00
911.39	3455.00
911.81	3517.00
912.24	3497.00
912.67	3361.00
913.09	3312.00
913.52	3408.00
913.95	3461.00
914.38	3491.00
914.80	3348.00
915.23	3319.00
915.66	3457.00
916.08	3491.00
916.51	3440.00
916.94	3330.00
917.36	3389.00
917.79	3425.00
918.22	3468.00
918.64	3504.00
919.07	3514.00
919.50	3539.00
919.92	3570.00
920.35	3507.00
920.78	3497.00
921.20	3446.00
921.63	3523.00
922.05	3464.00
922.48	3488.00
922.91	3456.00
923.33	3406.00
923.76	3415.00
924.18	3423.00
924.61	3427.00
925.04	3445.00
925.46	3410.00
925.89	3427.00
926.31	3424.00
926.74	3376.00
927.17	3296.00
927.59	3227.00
928.02	3205.00
928.44	3179.00
928.87	3162.00
929.29	3086.00
929.72	3085.00
930.15	3064.00
930.57	2979.00
931.00	2955.00
931.42	2888.00
931.85	2861.00
932.27	2860.00
932.70	2832.00
933.12	2795.00
933.55	2772.00
933.97	2753.00
934.40	2861.00
934.82	2830.00
935.25	2792.00
935.67	2830.00
936.10	2783.00
936.52	2758.00
936.95	2771.00
937.37	2765.00
937.80	2792.00
938.22	2866.00
938.65	2921.00
939.07	2918.00
939.50	2878.00
939.92	2865.00
940.35	2847.00
940.77	2842.00
941.19	2833.00
941.62	2852.00
942.04	2787.00
942.47	2774.00
942.89	2844.00
943.32	2767.00
943.74	2738.00
944.16	2802.00
944.59	2826.00
945.01	2777.00
945.44	2773.00
945.86	2796.00
946.29	2804.00
946.71	2820.00
947.13	2810.00
947.56	2801.00
947.98	2843.00
948.40	2872.00
948.83	2822.00
949.25	2785.00
949.68	2847.00
950.10	2903.00
950.52	2935.00
950.95	2868.00
951.37	2797.00
951.79	2835.00
952.22	2853.00
952.64	2881.00
953.06	2885.00
953.49	2890.00
953.91	2855.00
954.33	2889.00
954.76	2866.00
955.18	2908.00
955.60	2891.00
956.03	2886.00
956.45	2956.00
956.87	3007.00
957.30	2930.00
957.72	2941.00
958.14	2903.00
958.56	2876.00
958.99	2940.00
959.41	2962.00
959.83	2972.00
960.26	3006.00
960.68	3018.00
961.10	2971.00
961.52	2971.00
961.95	3002.00
962.37	3052.00
962.79	3016.00
963.21	3008.00
963.64	3034.00
964.06	3024.00
964.48	3064.00
964.90	3057.00
965.32	3017.00
965.75	3048.00
966.17	3055.00
966.59	3163.00
967.01	3175.00
967.44	3159.00
967.86	3178.00
968.28	3207.00
968.70	3199.00
969.12	3189.00
969.54	3178.00
969.97	3202.00
970.39	3222.00
970.81	3201.00
971.23	3185.00
971.65	3182.00
972.07	3160.00
972.50	3142.00
972.92	3100.00
973.34	3149.00
973.76	3136.00
974.18	3139.00
974.60	3125.00
975.02	3117.00
975.45	3110.00
975.87	3146.00
976.29	3175.00
976.71	3161.00
977.13	3163.00
977.55	3169.00
977.97	3162.00
978.39	3147.00
978.81	3183.00
979.24	3173.00
979.66	3193.00
980.08	3194.00
980.50	3182.00
980.92	3196.00
981.34	3183.00
981.76	3181.00
982.18	3211.00
982.60	3215.00
983.02	3198.00
983.44	3211.00
983.86	3171.00
984.28	3210.00
984.70	3203.00
985.12	3176.00
985.54	3180.00
985.96	3181.00
986.38	3194.00
986.80	3192.00
987.23	3189.00
987.65	3191.00
988.07	3197.00
988.49	3203.00
988.91	3195.00
989.33	3196.00
989.74	3173.00
990.16	3179.00
990.58	3200.00
991.00	3163.00
991.42	3183.00
991.84	3176.00
992.26	3174.00
992.68	3189.00
993.10	3206.00
993.52	3163.00
993.94	3200.00
994.36	3164.00
994.78	3174.00
995.20	3182.00
995.62	3199.00
996.04	3184.00
996.46	3154.00
996.88	3170.00
997.30	3200.00
997.71	3209.00
998.13	3196.00
998.55	3178.00
998.97	3191.00
999.39	3191.00
999.81	3208.00
1000.23	3172.00
1000.65	3180.00
1001.07	3176.00
1001.49	3206.00
1001.90	3170.00
1002.32	3166.00
1002.74	3175.00
1003.16	3163.00
1003.58	3134.00
1004.00	3130.00
1004.42	3147.00
1004.83	3173.00
1005.25	3165.00
1005.67	3163.00
1006.09	3126.00
1006.51	3125.00
1006.92	3161.00
1007.34	3157.00
1007.76	3127.00
1008.18	3149.00
1008.60	3159.00
1009.02	3125.00
1009.43	3151.00
1009.85	3143.00
1010.27	3133.00
1010.69	3128.00
1011.10	3134.00
1011.52	3128.00
1011.94	3107.00
1012.36	3110.00
1012.78	3105.00
1013.19	3089.00
1013.61	3080.00
1014.03	3088.00
1014.45	3109.00
1014.86	3104.00
1015.28	3065.00
1015.70	3056.00
1016.12	3093.00
1016.53	3067.00
1016.95	3063.00
1017.37	3068.00
1017.78	3041.00
1018.20	3055.00
1018.62	3063.00
1019.03	3037.00
1019.45	3050.00
1019.87	3025.00
1020.29	3029.00
1020.70	3021.00
1021.12	3017.00
1021.54	3022.00
1021.95	3032.00
1022.37	3017.00
1022.79	3016.00
1023.20	3019.00
1023.62	2994.00
1024.04	3005.00
1024.45	2992.00
1024.87	2995.00
1025.28	2973.00
1025.70	2966.00
1026.12	2969.00
1026.53	2974.00
1026.95	2978.00
1027.37	2984.00
1027.78	2983.00
1028.20	2979.00
1028.61	2963.00
1029.03	2971.00
1029.45	2936.00
1029.86	2949.00
1030.28	2954.00
1030.69	2944.00
1031.11	2926.00
1031.53	2920.00
1031.94	2946.00
1032.36	2922.00
1032.77	2916.00
1033.19	2906.00
1033.60	2916.00
1034.02	2916.00
1034.43	2898.00
1034.85	2906.00
1035.27	2903.00
1035.68	2901.00
1036.10	2909.00
1036.51	2892.00
1036.93	2878.00
1037.34	2896.00
1037.76	2890.00
1038.17	2874.00
1038.59	2869.00
1039.00	2861.00
1039.42	2865.00
1039.83	2865.00
1040.25	2866.00
1040.66	2864.00
1041.08	2858.00
1041.49	2843.00
1041.91	2830.00
1042.32	2860.00
1042.73	2846.00
1043.15	2838.00
1043.56	2829.00
1043.98	2814.00
1044.39	2825.00
1044.81	2835.00
1045.22	2813.00
1045.64	2824.00
1046.05	2807.00
1046.46	2829.00
1046.88	2822.00
1047.29	2822.00
1047.71	2794.00
1048.12	2811.00
1048.53	2793.00
1048.95	2788.00
1049.36	2774.00
1049.78	2803.00
1050.19	2783.00
1050.60	2801.00
1051.02	2782.00
1051.43	2775.00
1051.85	2779.00
1052.26	2765.00
1052.67	2757.00
1053.09	2756.00
1053.50	2768.00
1053.91	2769.00
1054.33	2762.00
1054.74	2748.00
1055.15	2748.00
1055.57	2752.00
1055.98	2761.00
1056.39	2741.00
1056.81	2728.00
1057.22	2736.00
1057.63	2740.00
1058.05	2739.00
1058.46	2731.00
1058.87	2721.00
1059.28	2729.00
1059.70	2748.00
1060.11	2727.00
1060.52	2729.00
1060.94	2707.00
1061.35	2726.00
1061.76	2727.00
1062.17	2724.00
1062.59	2720.00
1063.00	2710.00
1063.41	2702.00
1063.82	2707.00
1064.24	2722.00
1064.65	2708.00
1065.06	2697.00
1065.47	2695.00
1065.89	2704.00
1066.30	2695.00
1066.71	2707.00
1067.12	2689.00
1067.53	2683.00
1067.95	2687.00
1068.36	2695.00
1068.77	2703.00
1069.18	2690.00
1069.59	2684.00
1070.00	2683.00
1070.42	2682.00
1070.83	2673.00
1071.24	2681.00
1071.65	2687.00
1072.06	2672.00
1072.47	2673.00
1072.89	2668.00
1073.30	2677.00
1073.71	2684.00
1074.12	2662.00
1074.53	2669.00
1074.94	2670.00
1075.35	2670.00
1075.77	2665.00
1076.18	2659.00
1076.59	2658.00
1077.00	2668.00
1077.41	2663.00
1077.82	2653.00
1078.23	2652.00
1078.64	2662.00
1079.05	2650.00
1079.46	2660.00
1079.87	2652.00
1080.29	2647.00
1080.70	2650.00
1081.11	2658.00
1081.52	2641.00
1081.93	2647.00
1082.34	2650.00
1082.75	2637.00
1083.16	2645.00
1083.57	2632.00
1083.98	2631.00
1084.39	2634.00
1084.80	2645.00
1085.21	2646.00
1085.62	2635.00
1086.03	2650.00
1086.44	2635.00
1086.85	2636.00
1087.26	2624.00
1087.67	2635.00
1088.08	2635.00
1088.49	2631.00
1088.90	2622.00
1089.31	2625.00
1089.72	2626.00
1090.13	2632.00
1090.54	2610.00
1090.95	2615.00
1091.36	2615.00
1091.77	2617.00
1092.18	2620.00
1092.59	2611.00
1093.00	2619.00
1093.40	2614.00
1093.81	2616.00
1094.22	2615.00
1094.63	2616.00
1095.04	2610.00
1095.45	2606.00
1095.86	2613.00
1096.27	2609.00
1096.68	2605.00
1097.09	2607.00
1097.50	2602.00
1097.90	2603.00
1098.31	2606.00
1098.72	2605.00
1099.13	2595.00
1099.54	2597.00
1099.95	2586.00
1100.36	2598.00
1100.76	2613.00
1101.17	2605.00
1101.58	2602.00
1101.99	2597.00
1102.40	2594.00
1102.81	2598.00
1103.22	2591.00
1103.62	2588.00
1104.03	2595.00
1104.44	2587.00
1104.85	2587.00
1105.26	2590.00
1105.66	2588.00
1106.07	2586.00
1106.48	2588.00
1106.89	2585.00
1107.30	2585.00
1107.70	2581.00
1108.11	2591.00
1108.52	2590.00
1108.93	2587.00
1109.33	2588.00
1109.74	2591.00
1110.15	2584.00
1110.56	2586.00
1110.96	2580.00
1111.37	2582.00
1111.78	2585.00
1112.19	2582.00
1112.59	2582.00
1113.00	2577.00
1113.41	2584.00
1113.81	2587.00
1114.22	2585.00
1114.63	2554.00
1115.03	2556.00
1115.44	2558.00
1115.85	2560.00
>>>>>End Processed Spectral Data<<<<<
