SpectraSuite Data File
++++++++++++++++++++++++++++++++++++
Date: Thu Aug 05 10:45:32 EEST 2021
User: CanSEE
Dark Spectrum Present: No
Reference Spectrum Present: No
Number of Sampled Component Spectra: 1
Spectrometers: MAYP112785
Integration Time (usec): 10000 (MAYP112785)
Spectra Averaged: 1 (MAYP112785)
Boxcar Smoothing: 0 (MAYP112785)
Correct for Electrical Dark: No (MAYP112785)
Strobe/Lamp Enabled: No (MAYP112785)
Correct for Detector Non-linearity: No (MAYP112785)
Correct for Stray Light: No (MAYP112785)
Number of Pixels in Processed Spectrum: 2068
>>>>>Begin Processed Spectral Data<<<<<
198.35	3480.00
198.82	2487.00
199.30	2590.00
199.77	2575.00
200.24	2604.00
200.71	2603.00
201.18	2600.00
201.65	2614.00
202.13	2605.00
202.60	2611.00
203.07	2602.00
203.54	2608.00
204.01	2608.00
204.48	2607.00
204.96	2596.00
205.43	2609.00
205.90	2604.00
206.37	2602.00
206.84	2601.00
207.31	2606.00
207.78	2600.00
208.26	2605.00
208.73	2607.00
209.20	2616.00
209.67	2612.00
210.14	2607.00
210.61	2610.00
211.08	2605.00
211.56	2606.00
212.03	2610.00
212.50	2612.00
212.97	2595.00
213.44	2598.00
213.91	2598.00
214.38	2604.00
214.85	2608.00
215.33	2610.00
215.80	2605.00
216.27	2606.00
216.74	2605.00
217.21	2609.00
217.68	2599.00
218.15	2604.00
218.62	2610.00
219.09	2598.00
219.57	2601.00
220.04	2615.00
220.51	2609.00
220.98	2599.00
221.45	2602.00
221.92	2610.00
222.39	2605.00
222.86	2614.00
223.33	2606.00
223.80	2601.00
224.27	2603.00
224.74	2604.00
225.22	2605.00
225.69	2603.00
226.16	2610.00
226.63	2605.00
227.10	2606.00
227.57	2607.00
228.04	2608.00
228.51	2610.00
228.98	2608.00
229.45	2607.00
229.92	2610.00
230.39	2611.00
230.86	2608.00
231.33	2609.00
231.80	2605.00
232.27	2605.00
232.75	2605.00
233.22	2603.00
233.69	2609.00
234.16	2603.00
234.63	2614.00
235.10	2605.00
235.57	2599.00
236.04	2612.00
236.51	2610.00
236.98	2606.00
237.45	2609.00
237.92	2611.00
238.39	2600.00
238.86	2605.00
239.33	2662.00
239.80	2607.00
240.27	2601.00
240.74	2607.00
241.21	2600.00
241.68	2609.00
242.15	2602.00
242.62	2600.00
243.09	2607.00
243.56	2603.00
244.03	2613.00
244.50	2605.00
244.97	2605.00
245.44	2624.00
245.91	2613.00
246.38	2612.00
246.85	2604.00
247.32	2608.00
247.79	2601.00
248.26	2613.00
248.73	2602.00
249.20	2613.00
249.67	2604.00
250.14	2618.00
250.61	2599.00
251.08	2602.00
251.55	2609.00
252.02	2606.00
252.49	2612.00
252.96	2610.00
253.43	2599.00
253.90	2609.00
254.37	2606.00
254.84	2608.00
255.31	2613.00
255.77	2608.00
256.24	2596.00
256.71	2607.00
257.18	2607.00
257.65	2606.00
258.12	2600.00
258.59	2610.00
259.06	2608.00
259.53	2605.00
260.00	2610.00
260.47	2602.00
260.94	2611.00
261.41	2619.00
261.88	2606.00
262.35	2609.00
262.81	2608.00
263.28	2609.00
263.75	2607.00
264.22	2600.00
264.69	2618.00
265.16	2611.00
265.63	2612.00
266.10	2606.00
266.57	2608.00
267.04	2604.00
267.51	2608.00
267.97	2609.00
268.44	2608.00
268.91	2609.00
269.38	2606.00
269.85	2617.00
270.32	2609.00
270.79	2613.00
271.26	2608.00
271.73	2598.00
272.19	2605.00
272.66	2609.00
273.13	2611.00
273.60	2607.00
274.07	2608.00
274.54	2611.00
275.01	2614.00
275.48	2608.00
275.94	2611.00
276.41	2615.00
276.88	2605.00
277.35	2603.00
277.82	2608.00
278.29	2605.00
278.76	2619.00
279.22	2600.00
279.69	2611.00
280.16	2616.00
280.63	2609.00
281.10	2610.00
281.57	2605.00
282.04	2610.00
282.50	2599.00
282.97	2611.00
283.44	2608.00
283.91	2606.00
284.38	2607.00
284.85	2608.00
285.31	2609.00
285.78	2604.00
286.25	2614.00
286.72	2613.00
287.19	2602.00
287.65	2609.00
288.12	2605.00
288.59	2609.00
289.06	2609.00
289.53	2611.00
289.99	2608.00
290.46	2606.00
290.93	2606.00
291.40	2612.00
291.87	2612.00
292.33	2604.00
292.80	2606.00
293.27	2598.00
293.74	2615.00
294.21	2603.00
294.67	2603.00
295.14	2609.00
295.61	2612.00
296.08	2611.00
296.54	2612.00
297.01	2609.00
297.48	2608.00
297.95	2593.00
298.42	2605.00
298.88	2604.00
299.35	2608.00
299.82	2601.00
300.29	2607.00
300.75	2607.00
301.22	2614.00
301.69	2610.00
302.16	2615.00
302.62	2607.00
303.09	2606.00
303.56	2606.00
304.03	2612.00
304.49	2612.00
304.96	2612.00
305.43	2618.00
305.90	2617.00
306.36	2622.00
306.83	2615.00
307.30	2613.00
307.76	2622.00
308.23	2626.00
308.70	2622.00
309.17	2627.00
309.63	2623.00
310.10	2639.00
310.57	2637.00
311.03	2633.00
311.50	2641.00
311.97	2655.00
312.44	2649.00
312.90	2642.00
313.37	2660.00
313.84	2657.00
314.30	2669.00
314.77	2664.00
315.24	2670.00
315.70	2666.00
316.17	2665.00
316.64	2687.00
317.10	2678.00
317.57	2694.00
318.04	2690.00
318.50	2713.00
318.97	2709.00
319.44	2706.00
319.90	2700.00
320.37	2717.00
320.84	2744.00
321.30	2713.00
321.77	2715.00
322.24	2723.00
322.70	2728.00
323.17	2719.00
323.64	2733.00
324.10	2741.00
324.57	2750.00
325.04	2748.00
325.50	2773.00
325.97	2782.00
326.44	2797.00
326.90	2810.00
327.37	2801.00
327.84	2804.00
328.30	2807.00
328.77	2802.00
329.23	2822.00
329.70	2829.00
330.17	2844.00
330.63	2843.00
331.10	2820.00
331.56	2831.00
332.03	2842.00
332.50	2818.00
332.96	2821.00
333.43	2829.00
333.90	2836.00
334.36	2833.00
334.83	2839.00
335.29	2835.00
335.76	2841.00
336.22	2824.00
336.69	2830.00
337.16	2834.00
337.62	2813.00
338.09	2843.00
338.55	2859.00
339.02	2858.00
339.49	2877.00
339.95	2877.00
340.42	2866.00
340.88	2902.00
341.35	2879.00
341.81	2877.00
342.28	2901.00
342.75	2875.00
343.21	2877.00
343.68	2886.00
344.14	2874.00
344.61	2840.00
345.07	2839.00
345.54	2896.00
346.00	2907.00
346.47	2900.00
346.93	2909.00
347.40	2903.00
347.87	2924.00
348.33	2898.00
348.80	2903.00
349.26	2914.00
349.73	2921.00
350.19	2944.00
350.66	2944.00
351.12	2962.00
351.59	2957.00
352.05	2939.00
352.52	2927.00
352.98	2912.00
353.45	2955.00
353.91	2971.00
354.38	2983.00
354.84	2987.00
355.31	2984.00
355.77	2974.00
356.24	2969.00
356.70	2962.00
357.17	2917.00
357.63	2910.00
358.10	2895.00
358.56	2910.00
359.03	2886.00
359.49	2938.00
359.96	3011.00
360.42	3011.00
360.89	2964.00
361.35	2936.00
361.82	2967.00
362.28	2962.00
362.75	3017.00
363.21	2995.00
363.67	3012.00
364.14	2992.00
364.60	3008.00
365.07	3023.00
365.53	3055.00
366.00	3073.00
366.46	3077.00
366.93	3098.00
367.39	3091.00
367.86	3089.00
368.32	3076.00
368.78	3061.00
369.25	3067.00
369.71	3130.00
370.18	3093.00
370.64	3120.00
371.11	3076.00
371.57	3101.00
372.03	3084.00
372.50	3023.00
372.96	3029.00
373.43	3032.00
373.89	3001.00
374.35	3024.00
374.82	3046.00
375.28	3055.00
375.75	3123.00
376.21	3122.00
376.67	3129.00
377.14	3132.00
377.60	3162.00
378.07	3209.00
378.53	3241.00
378.99	3183.00
379.46	3169.00
379.92	3159.00
380.39	3149.00
380.85	3183.00
381.31	3159.00
381.78	3129.00
382.24	3077.00
382.70	3029.00
383.17	2993.00
383.63	3018.00
384.09	3043.00
384.56	3088.00
385.02	3151.00
385.48	3150.00
385.95	3129.00
386.41	3137.00
386.88	3168.00
387.34	3169.00
387.80	3156.00
388.27	3191.00
388.73	3182.00
389.19	3226.00
389.66	3287.00
390.12	3332.00
390.58	3306.00
391.05	3344.00
391.51	3345.00
391.97	3305.00
392.43	3239.00
392.90	3145.00
393.36	3047.00
393.82	3079.00
394.29	3139.00
394.75	3260.00
395.21	3370.00
395.68	3368.00
396.14	3318.00
396.60	3257.00
397.07	3173.00
397.53	3243.00
397.99	3440.00
398.45	3577.00
398.92	3644.00
399.38	3650.00
399.84	3718.00
400.31	3700.00
400.77	3726.00
401.23	3782.00
401.69	3766.00
402.16	3770.00
402.62	3842.00
403.08	3763.00
403.54	3791.00
404.01	3784.00
404.47	3803.00
404.93	3759.00
405.39	3759.00
405.86	3759.00
406.32	3757.00
406.78	3772.00
407.24	3767.00
407.71	3820.00
408.17	3835.00
408.63	3856.00
409.09	3884.00
409.56	3864.00
410.02	3834.00
410.48	3823.00
410.94	3881.00
411.40	3949.00
411.87	4000.00
412.33	3982.00
412.79	3957.00
413.25	3970.00
413.71	3940.00
414.18	4017.00
414.64	4028.00
415.10	3991.00
415.56	4032.00
416.02	3994.00
416.49	4009.00
416.95	4058.00
417.41	4057.00
417.87	4009.00
418.33	4025.00
418.80	4008.00
419.26	4002.00
419.72	4045.00
420.18	4003.00
420.64	4032.00
421.10	4065.00
421.57	4082.00
422.03	4097.00
422.49	4051.00
422.95	3994.00
423.41	4000.00
423.87	4026.00
424.34	4062.00
424.80	4098.00
425.26	4091.00
425.72	4072.00
426.18	4093.00
426.64	4033.00
427.10	4073.00
427.57	3995.00
428.03	4014.00
428.49	4038.00
428.95	3965.00
429.41	3880.00
429.87	3864.00
430.33	3857.00
430.79	3844.00
431.26	3945.00
431.72	4005.00
432.18	4212.00
432.64	4197.00
433.10	4166.00
433.56	4214.00
434.02	4196.00
434.48	4153.00
434.94	4185.00
435.40	4312.00
435.87	4359.00
436.33	4339.00
436.79	4368.00
437.25	4315.00
437.71	4251.00
438.17	4267.00
438.63	4258.00
439.09	4242.00
439.55	4297.00
440.01	4363.00
440.47	4436.00
440.93	4446.00
441.39	4492.00
441.85	4518.00
442.32	4527.00
442.78	4577.00
443.24	4550.00
443.70	4637.00
444.16	4547.00
444.62	4585.00
445.08	4589.00
445.54	4545.00
446.00	4529.00
446.46	4598.00
446.92	4640.00
447.38	4644.00
447.84	4770.00
448.30	4763.00
448.76	4715.00
449.22	4766.00
449.68	4770.00
450.14	4807.00
450.60	4879.00
451.06	4915.00
451.52	4834.00
451.98	4792.00
452.44	4768.00
452.90	4755.00
453.36	4806.00
453.82	4768.00
454.28	4814.00
454.74	4847.00
455.20	4828.00
455.66	4854.00
456.12	4884.00
456.58	4907.00
457.04	4906.00
457.50	4944.00
457.96	4945.00
458.42	4913.00
458.88	4878.00
459.34	4902.00
459.80	4924.00
460.26	4960.00
460.72	4981.00
461.18	4954.00
461.64	5039.00
462.10	4977.00
462.55	5099.00
463.01	5039.00
463.47	5028.00
463.93	5022.00
464.39	4998.00
464.85	4972.00
465.31	5039.00
465.77	4968.00
466.23	4978.00
466.69	4951.00
467.15	4981.00
467.61	4962.00
468.07	5061.00
468.52	4997.00
468.98	5075.00
469.44	4973.00
469.90	4992.00
470.36	5011.00
470.82	5042.00
471.28	5051.00
471.74	5059.00
472.20	5141.00
472.66	5126.00
473.11	5106.00
473.57	5131.00
474.03	5172.00
474.49	5117.00
474.95	5162.00
475.41	5106.00
475.87	5145.00
476.33	5105.00
476.78	5168.00
477.24	5226.00
477.70	5195.00
478.16	5219.00
478.62	5230.00
479.08	5180.00
479.54	5264.00
479.99	5250.00
480.45	5294.00
480.91	5236.00
481.37	5289.00
481.83	5295.00
482.29	5317.00
482.74	5285.00
483.20	5341.00
483.66	5250.00
484.12	5229.00
484.58	5208.00
485.04	5137.00
485.49	4982.00
485.95	5014.00
486.41	4878.00
486.87	4895.00
487.33	5066.00
487.78	5146.00
488.24	5149.00
488.70	5232.00
489.16	5229.00
489.62	5246.00
490.07	5347.00
490.53	5371.00
490.99	5252.00
491.45	5269.00
491.90	5270.00
492.36	5262.00
492.82	5218.00
493.28	5266.00
493.74	5318.00
494.19	5309.00
494.65	5330.00
495.11	5393.00
495.57	5441.00
496.02	5397.00
496.48	5357.00
496.94	5379.00
497.40	5356.00
497.85	5390.00
498.31	5337.00
498.77	5331.00
499.23	5309.00
499.68	5315.00
500.14	5302.00
500.60	5277.00
501.06	5230.00
501.51	5229.00
501.97	5219.00
502.43	5259.00
502.88	5289.00
503.34	5313.00
503.80	5346.00
504.26	5317.00
504.71	5333.00
505.17	5417.00
505.63	5425.00
506.08	5387.00
506.54	5451.00
507.00	5412.00
507.45	5316.00
507.91	5371.00
508.37	5399.00
508.82	5387.00
509.28	5369.00
509.74	5448.00
510.19	5387.00
510.65	5432.00
511.11	5543.00
511.56	5538.00
512.02	5525.00
512.48	5446.00
512.93	5436.00
513.39	5426.00
513.85	5387.00
514.30	5383.00
514.76	5437.00
515.22	5394.00
515.67	5423.00
516.13	5302.00
516.59	5284.00
517.04	5233.00
517.50	5146.00
517.95	5161.00
518.41	5269.00
518.87	5253.00
519.32	5327.00
519.78	5396.00
520.24	5503.00
520.69	5494.00
521.15	5524.00
521.60	5499.00
522.06	5495.00
522.52	5532.00
522.97	5514.00
523.43	5528.00
523.88	5573.00
524.34	5577.00
524.80	5597.00
525.25	5599.00
525.71	5514.00
526.16	5461.00
526.62	5388.00
527.07	5424.00
527.53	5404.00
527.99	5566.00
528.44	5630.00
528.90	5629.00
529.35	5668.00
529.81	5707.00
530.26	5679.00
530.72	5720.00
531.17	5691.00
531.63	5696.00
532.09	5654.00
532.54	5556.00
533.00	5628.00
533.45	5580.00
533.91	5653.00
534.36	5678.00
534.82	5685.00
535.27	5755.00
535.73	5786.00
536.18	5724.00
536.64	5728.00
537.09	5626.00
537.55	5673.00
538.00	5668.00
538.46	5707.00
538.91	5684.00
539.37	5636.00
539.82	5585.00
540.28	5560.00
540.73	5584.00
541.19	5651.00
541.64	5655.00
542.10	5718.00
542.55	5648.00
543.01	5690.00
543.46	5698.00
543.92	5688.00
544.37	5749.00
544.83	5716.00
545.28	5737.00
545.74	5763.00
546.19	5722.00
546.64	5735.00
547.10	5729.00
547.55	5724.00
548.01	5720.00
548.46	5719.00
548.92	5768.00
549.37	5769.00
549.83	5724.00
550.28	5780.00
550.73	5794.00
551.19	5860.00
551.64	5774.00
552.10	5775.00
552.55	5777.00
553.00	5807.00
553.46	5762.00
553.91	5778.00
554.37	5789.00
554.82	5828.00
555.28	5806.00
555.73	5845.00
556.18	5855.00
556.64	5802.00
557.09	5776.00
557.54	5762.00
558.00	5729.00
558.45	5730.00
558.91	5693.00
559.36	5658.00
559.81	5728.00
560.27	5756.00
560.72	5755.00
561.17	5778.00
561.63	5810.00
562.08	5815.00
562.54	5811.00
562.99	5810.00
563.44	5794.00
563.90	5819.00
564.35	5809.00
564.80	5779.00
565.26	5758.00
565.71	5769.00
566.16	5750.00
566.62	5753.00
567.07	5768.00
567.52	5814.00
567.98	5792.00
568.43	5733.00
568.88	5762.00
569.34	5760.00
569.79	5687.00
570.24	5725.00
570.69	5702.00
571.15	5681.00
571.60	5741.00
572.05	5764.00
572.51	5816.00
572.96	5846.00
573.41	5834.00
573.86	5821.00
574.32	5802.00
574.77	5743.00
575.22	5758.00
575.68	5793.00
576.13	5750.00
576.58	5771.00
577.03	5798.00
577.49	5776.00
577.94	5718.00
578.39	5758.00
578.84	5720.00
579.30	5832.00
579.75	5804.00
580.20	5886.00
580.65	5911.00
581.11	5891.00
581.56	5881.00
582.01	5904.00
582.46	5903.00
582.92	5905.00
583.37	5953.00
583.82	5907.00
584.27	5853.00
584.72	5893.00
585.18	5927.00
585.63	5828.00
586.08	5878.00
586.53	5843.00
586.98	5874.00
587.44	5828.00
587.89	5853.00
588.34	5788.00
588.79	5623.00
589.24	5542.00
589.70	5507.00
590.15	5593.00
590.60	5690.00
591.05	5723.00
591.50	5824.00
591.96	5719.00
592.41	5806.00
592.86	5746.00
593.31	5744.00
593.76	5800.00
594.21	5754.00
594.66	5718.00
595.12	5786.00
595.57	5781.00
596.02	5761.00
596.47	5809.00
596.92	5820.00
597.37	5847.00
597.82	5834.00
598.28	5844.00
598.73	5778.00
599.18	5734.00
599.63	5843.00
600.08	5847.00
600.53	5867.00
600.98	5858.00
601.43	5842.00
601.88	5783.00
602.34	5744.00
602.79	5819.00
603.24	5814.00
603.69	5880.00
604.14	5847.00
604.59	5910.00
605.04	5939.00
605.49	5937.00
605.94	5859.00
606.39	5902.00
606.84	5907.00
607.30	5867.00
607.75	5894.00
608.20	5857.00
608.65	5858.00
609.10	5845.00
609.55	5856.00
610.00	5896.00
610.45	5827.00
610.90	5868.00
611.35	5869.00
611.80	5927.00
612.25	5831.00
612.70	5828.00
613.15	5821.00
613.60	5871.00
614.05	5823.00
614.50	5834.00
614.95	5875.00
615.40	5861.00
615.85	5799.00
616.30	5839.00
616.75	5735.00
617.20	5773.00
617.65	5852.00
618.10	5898.00
618.55	5895.00
619.00	5858.00
619.45	5900.00
619.90	5891.00
620.35	5926.00
620.80	5911.00
621.25	5891.00
621.70	5870.00
622.15	5862.00
622.60	5821.00
623.05	5836.00
623.50	5781.00
623.95	5816.00
624.40	5783.00
624.85	5803.00
625.30	5758.00
625.75	5732.00
626.20	5824.00
626.65	5765.00
627.10	5848.00
627.55	5797.00
627.99	5684.00
628.44	5724.00
628.89	5756.00
629.34	5760.00
629.79	5758.00
630.24	5806.00
630.69	5766.00
631.14	5810.00
631.59	5753.00
632.04	5798.00
632.49	5854.00
632.94	5823.00
633.38	5816.00
633.83	5854.00
634.28	5827.00
634.73	5844.00
635.18	5918.00
635.63	5924.00
636.08	5836.00
636.53	5896.00
636.97	5889.00
637.42	5942.00
637.87	5978.00
638.32	5983.00
638.77	6024.00
639.22	5961.00
639.67	5947.00
640.11	5896.00
640.56	5877.00
641.01	5934.00
641.46	5891.00
641.91	5893.00
642.36	5881.00
642.81	5943.00
643.25	5961.00
643.70	5864.00
644.15	5923.00
644.60	5978.00
645.05	5901.00
645.49	5890.00
645.94	5850.00
646.39	5867.00
646.84	5829.00
647.29	5802.00
647.73	5763.00
648.18	5812.00
648.63	5787.00
649.08	5788.00
649.53	5723.00
649.97	5759.00
650.42	5834.00
650.87	5934.00
651.32	5880.00
651.77	5809.00
652.21	5842.00
652.66	5894.00
653.11	5906.00
653.56	5888.00
654.00	5856.00
654.45	5798.00
654.90	5862.00
655.35	5675.00
655.79	5567.00
656.24	5345.00
656.69	5336.00
657.14	5511.00
657.58	5633.00
658.03	5751.00
658.48	5869.00
658.92	5835.00
659.37	5817.00
659.82	5849.00
660.27	5900.00
660.71	5967.00
661.16	5897.00
661.61	5937.00
662.05	5883.00
662.50	5968.00
662.95	5890.00
663.39	5892.00
663.84	5863.00
664.29	5976.00
664.74	5981.00
665.18	5867.00
665.63	5897.00
666.08	5911.00
666.52	5858.00
666.97	5916.00
667.42	5931.00
667.86	5808.00
668.31	5961.00
668.76	5909.00
669.20	5936.00
669.65	5906.00
670.09	5886.00
670.54	5895.00
670.99	5910.00
671.43	5848.00
671.88	5840.00
672.33	5901.00
672.77	5860.00
673.22	5840.00
673.66	5884.00
674.11	5840.00
674.56	5876.00
675.00	5804.00
675.45	5892.00
675.90	5892.00
676.34	5870.00
676.79	5854.00
677.23	5789.00
677.68	5884.00
678.12	5857.00
678.57	5890.00
679.02	5769.00
679.46	5888.00
679.91	5844.00
680.35	5826.00
680.80	5795.00
681.25	5888.00
681.69	5816.00
682.14	5792.00
682.58	5876.00
683.03	5806.00
683.47	5778.00
683.92	5725.00
684.36	5794.00
684.81	5715.00
685.25	5743.00
685.70	5718.00
686.15	5623.00
686.59	5449.00
687.04	5040.00
687.48	4907.00
687.93	4940.00
688.37	5185.00
688.82	5294.00
689.26	5235.00
689.71	5217.00
690.15	5222.00
690.60	5302.00
691.04	5413.00
691.49	5468.00
691.93	5469.00
692.38	5497.00
692.82	5542.00
693.27	5457.00
693.71	5438.00
694.16	5452.00
694.60	5414.00
695.04	5424.00
695.49	5470.00
695.93	5567.00
696.38	5546.00
696.82	5665.00
697.27	5684.00
697.71	5616.00
698.16	5602.00
698.60	5613.00
699.04	5507.00
699.49	5498.00
699.93	5521.00
700.38	5482.00
700.82	5493.00
701.27	5480.00
701.71	5451.00
702.15	5455.00
702.60	5398.00
703.04	5487.00
703.49	5513.00
703.93	5542.00
704.37	5498.00
704.82	5575.00
705.26	5586.00
705.71	5600.00
706.15	5543.00
706.59	5586.00
707.04	5532.00
707.48	5563.00
707.93	5556.00
708.37	5590.00
708.81	5556.00
709.26	5593.00
709.70	5572.00
710.14	5575.00
710.59	5553.00
711.03	5520.00
711.47	5510.00
711.92	5555.00
712.36	5546.00
712.80	5497.00
713.25	5487.00
713.69	5494.00
714.13	5530.00
714.58	5495.00
715.02	5464.00
715.46	5445.00
715.91	5426.00
716.35	5400.00
716.79	5176.00
717.24	5008.00
717.68	4920.00
718.12	4836.00
718.57	4776.00
719.01	4720.00
719.45	4666.00
719.89	4768.00
720.34	4714.00
720.78	4777.00
721.22	4975.00
721.66	5133.00
722.11	5204.00
722.55	5137.00
722.99	5085.00
723.44	4934.00
723.88	4848.00
724.32	4854.00
724.76	4862.00
725.21	4849.00
725.65	4873.00
726.09	4894.00
726.53	4847.00
726.97	5000.00
727.42	4842.00
727.86	4796.00
728.30	4922.00
728.74	4979.00
729.19	4860.00
729.63	4904.00
730.07	4909.00
730.51	4944.00
730.95	4895.00
731.40	4916.00
731.84	5025.00
732.28	5137.00
732.72	5179.00
733.16	5166.00
733.61	5197.00
734.05	5285.00
734.49	5215.00
734.93	5200.00
735.37	5177.00
735.81	5236.00
736.26	5194.00
736.70	5219.00
737.14	5181.00
737.58	5259.00
738.02	5238.00
738.46	5215.00
738.90	5158.00
739.35	5183.00
739.79	5240.00
740.23	5248.00
740.67	5257.00
741.11	5200.00
741.55	5205.00
741.99	5194.00
742.44	5195.00
742.88	5276.00
743.32	5257.00
743.76	5274.00
744.20	5298.00
744.64	5263.00
745.08	5250.00
745.52	5291.00
745.96	5306.00
746.40	5344.00
746.84	5235.00
747.29	5318.00
747.73	5256.00
748.17	5321.00
748.61	5301.00
749.05	5259.00
749.49	5251.00
749.93	5290.00
750.37	5312.00
750.81	5305.00
751.25	5302.00
751.69	5301.00
752.13	5333.00
752.57	5313.00
753.01	5295.00
753.45	5283.00
753.89	5263.00
754.33	5207.00
754.77	5224.00
755.21	5337.00
755.65	5282.00
756.09	5297.00
756.53	5261.00
756.97	5230.00
757.41	5275.00
757.85	5211.00
758.29	5192.00
758.73	5151.00
759.17	5019.00
759.61	4400.00
760.05	3594.00
760.49	3197.00
760.93	3053.00
761.37	3254.00
761.81	3752.00
762.25	3947.00
762.69	3829.00
763.13	3612.00
763.57	3598.00
764.01	3728.00
764.45	3882.00
764.89	3996.00
765.33	4182.00
765.77	4343.00
766.21	4465.00
766.65	4660.00
767.09	4838.00
767.53	4906.00
767.96	4961.00
768.40	5019.00
768.84	4987.00
769.28	5111.00
769.72	5086.00
770.16	5130.00
770.60	5139.00
771.04	5201.00
771.48	5143.00
771.92	5128.00
772.35	5209.00
772.79	5191.00
773.23	5161.00
773.67	5160.00
774.11	5146.00
774.55	5050.00
774.99	5054.00
775.43	5113.00
775.86	5173.00
776.30	5093.00
776.74	5119.00
777.18	5097.00
777.62	5112.00
778.06	5139.00
778.50	5067.00
778.93	5056.00
779.37	5134.00
779.81	5054.00
780.25	4996.00
780.69	5089.00
781.12	5042.00
781.56	5050.00
782.00	5056.00
782.44	5087.00
782.88	5089.00
783.32	5018.00
783.75	5035.00
784.19	5050.00
784.63	5090.00
785.07	5002.00
785.50	4934.00
785.94	5000.00
786.38	4959.00
786.82	4989.00
787.26	4943.00
787.69	4975.00
788.13	4917.00
788.57	4935.00
789.01	4911.00
789.44	4917.00
789.88	4889.00
790.32	4833.00
790.76	4859.00
791.19	4847.00
791.63	4833.00
792.07	4812.00
792.51	4845.00
792.94	4849.00
793.38	4800.00
793.82	4778.00
794.25	4846.00
794.69	4790.00
795.13	4843.00
795.56	4813.00
796.00	4818.00
796.44	4721.00
796.88	4748.00
797.31	4807.00
797.75	4768.00
798.19	4744.00
798.62	4756.00
799.06	4755.00
799.50	4763.00
799.93	4759.00
800.37	4739.00
800.81	4753.00
801.24	4746.00
801.68	4725.00
802.12	4730.00
802.55	4720.00
802.99	4690.00
803.43	4735.00
803.86	4660.00
804.30	4656.00
804.73	4614.00
805.17	4685.00
805.61	4713.00
806.04	4760.00
806.48	4749.00
806.92	4748.00
807.35	4702.00
807.79	4712.00
808.22	4690.00
808.66	4635.00
809.10	4602.00
809.53	4628.00
809.97	4575.00
810.40	4590.00
810.84	4565.00
811.27	4521.00
811.71	4568.00
812.15	4563.00
812.58	4521.00
813.02	4495.00
813.45	4386.00
813.89	4365.00
814.32	4298.00
814.76	4219.00
815.19	4167.00
815.63	4100.00
816.07	4157.00
816.50	4031.00
816.94	4074.00
817.37	4209.00
817.81	4121.00
818.24	4117.00
818.68	4210.00
819.11	4198.00
819.55	4187.00
819.98	4175.00
820.42	4261.00
820.85	4430.00
821.29	4313.00
821.72	4308.00
822.16	4238.00
822.59	4051.00
823.03	3839.00
823.46	3965.00
823.90	4149.00
824.33	4295.00
824.77	4383.00
825.20	4411.00
825.63	4280.00
826.07	4333.00
826.50	4357.00
826.94	4344.00
827.37	4237.00
827.81	4165.00
828.24	4193.00
828.68	4232.00
829.11	4209.00
829.54	4175.00
829.98	4265.00
830.41	4231.00
830.85	4257.00
831.28	4279.00
831.71	4262.00
832.15	4234.00
832.58	4257.00
833.02	4306.00
833.45	4306.00
833.88	4243.00
834.32	4266.00
834.75	4310.00
835.19	4317.00
835.62	4338.00
836.05	4298.00
836.49	4330.00
836.92	4357.00
837.35	4343.00
837.79	4401.00
838.22	4389.00
838.66	4369.00
839.09	4422.00
839.52	4418.00
839.96	4411.00
840.39	4420.00
840.82	4415.00
841.26	4349.00
841.69	4355.00
842.12	4360.00
842.56	4394.00
842.99	4396.00
843.42	4354.00
843.85	4335.00
844.29	4368.00
844.72	4438.00
845.15	4392.00
845.59	4487.00
846.02	4452.00
846.45	4460.00
846.88	4401.00
847.32	4376.00
847.75	4389.00
848.18	4331.00
848.62	4404.00
849.05	4327.00
849.48	4261.00
849.91	4211.00
850.35	4241.00
850.78	4314.00
851.21	4354.00
851.64	4287.00
852.08	4404.00
852.51	4419.00
852.94	4312.00
853.37	4259.00
853.80	4177.00
854.24	3983.00
854.67	4061.00
855.10	4258.00
855.53	4275.00
855.97	4267.00
856.40	4324.00
856.83	4293.00
857.26	4311.00
857.69	4345.00
858.13	4314.00
858.56	4326.00
858.99	4332.00
859.42	4389.00
859.85	4351.00
860.28	4339.00
860.72	4374.00
861.15	4348.00
861.58	4347.00
862.01	4299.00
862.44	4309.00
862.87	4304.00
863.30	4308.00
863.74	4275.00
864.17	4297.00
864.60	4255.00
865.03	4293.00
865.46	4265.00
865.89	4147.00
866.32	4056.00
866.75	4194.00
867.19	4293.00
867.62	4304.00
868.05	4310.00
868.48	4258.00
868.91	4278.00
869.34	4276.00
869.77	4238.00
870.20	4261.00
870.63	4234.00
871.06	4254.00
871.49	4192.00
871.93	4270.00
872.36	4229.00
872.79	4249.00
873.22	4238.00
873.65	4249.00
874.08	4244.00
874.51	4261.00
874.94	4240.00
875.37	4271.00
875.80	4268.00
876.23	4247.00
876.66	4269.00
877.09	4207.00
877.52	4170.00
877.95	4187.00
878.38	4179.00
878.81	4162.00
879.24	4155.00
879.67	4173.00
880.10	4202.00
880.53	4147.00
880.96	4189.00
881.39	4211.00
881.82	4192.00
882.25	4228.00
882.68	4201.00
883.11	4247.00
883.54	4201.00
883.97	4260.00
884.40	4195.00
884.83	4215.00
885.26	4176.00
885.69	4165.00
886.12	4100.00
886.55	4120.00
886.98	4148.00
887.40	4163.00
887.83	4168.00
888.26	4185.00
888.69	4184.00
889.12	4203.00
889.55	4171.00
889.98	4180.00
890.41	4157.00
890.84	4186.00
891.27	4186.00
891.70	4171.00
892.12	4106.00
892.55	4060.00
892.98	4028.00
893.41	4100.00
893.84	4042.00
894.27	3979.00
894.70	3920.00
895.13	3917.00
895.55	3877.00
895.98	3852.00
896.41	3803.00
896.84	3783.00
897.27	3787.00
897.70	3835.00
898.13	3764.00
898.55	3622.00
898.98	3612.00
899.41	3790.00
899.84	3757.00
900.27	3637.00
900.70	3668.00
901.12	3700.00
901.55	3698.00
901.98	3705.00
902.41	3711.00
902.84	3827.00
903.26	3884.00
903.69	3923.00
904.12	3905.00
904.55	3945.00
904.97	3919.00
905.40	3900.00
905.83	3814.00
906.26	3742.00
906.69	3706.00
907.11	3677.00
907.54	3697.00
907.97	3671.00
908.40	3652.00
908.82	3644.00
909.25	3642.00
909.68	3608.00
910.10	3646.00
910.53	3683.00
910.96	3720.00
911.39	3677.00
911.81	3735.00
912.24	3709.00
912.67	3566.00
913.09	3506.00
913.52	3604.00
913.95	3679.00
914.38	3725.00
914.80	3570.00
915.23	3501.00
915.66	3610.00
916.08	3737.00
916.51	3669.00
916.94	3582.00
917.36	3555.00
917.79	3647.00
918.22	3678.00
918.64	3738.00
919.07	3692.00
919.50	3719.00
919.92	3751.00
920.35	3720.00
920.78	3738.00
921.20	3663.00
921.63	3705.00
922.05	3715.00
922.48	3716.00
922.91	3666.00
923.33	3604.00
923.76	3630.00
924.18	3645.00
924.61	3637.00
925.04	3655.00
925.46	3618.00
925.89	3612.00
926.31	3630.00
926.74	3604.00
927.17	3470.00
927.59	3397.00
928.02	3355.00
928.44	3334.00
928.87	3333.00
929.29	3237.00
929.72	3225.00
930.15	3193.00
930.57	3118.00
931.00	3082.00
931.42	3013.00
931.85	2973.00
932.27	2974.00
932.70	2932.00
933.12	2870.00
933.55	2844.00
933.97	2848.00
934.40	2961.00
934.82	2923.00
935.25	2864.00
935.67	2906.00
936.10	2865.00
936.52	2835.00
936.95	2849.00
937.37	2832.00
937.80	2864.00
938.22	2938.00
938.65	3039.00
939.07	3049.00
939.50	2975.00
939.92	2950.00
940.35	2948.00
940.77	2926.00
941.19	2926.00
941.62	2945.00
942.04	2870.00
942.47	2865.00
942.89	2897.00
943.32	2840.00
943.74	2807.00
944.16	2899.00
944.59	2919.00
945.01	2847.00
945.44	2852.00
945.86	2884.00
946.29	2895.00
946.71	2903.00
947.13	2913.00
947.56	2881.00
947.98	2932.00
948.40	2970.00
948.83	2892.00
949.25	2839.00
949.68	2896.00
950.10	3007.00
950.52	3051.00
950.95	2961.00
951.37	2895.00
951.79	2896.00
952.22	2939.00
952.64	2998.00
953.06	3018.00
953.49	3003.00
953.91	2962.00
954.33	3007.00
954.76	2939.00
955.18	2979.00
955.60	3002.00
956.03	2998.00
956.45	3051.00
956.87	3134.00
957.30	3072.00
957.72	3071.00
958.14	2993.00
958.56	2982.00
958.99	3003.00
959.41	3094.00
959.83	3087.00
960.26	3149.00
960.68	3190.00
961.10	3102.00
961.52	3064.00
961.95	3101.00
962.37	3207.00
962.79	3159.00
963.21	3130.00
963.64	3150.00
964.06	3187.00
964.48	3236.00
964.90	3210.00
965.32	3180.00
965.75	3162.00
966.17	3230.00
966.59	3299.00
967.01	3339.00
967.44	3316.00
967.86	3321.00
968.28	3341.00
968.70	3367.00
969.12	3374.00
969.54	3383.00
969.97	3400.00
970.39	3386.00
970.81	3330.00
971.23	3353.00
971.65	3341.00
972.07	3287.00
972.50	3313.00
972.92	3247.00
973.34	3272.00
973.76	3291.00
974.18	3284.00
974.60	3260.00
975.02	3252.00
975.45	3259.00
975.87	3279.00
976.29	3381.00
976.71	3329.00
977.13	3308.00
977.55	3312.00
977.97	3280.00
978.39	3300.00
978.81	3319.00
979.24	3329.00
979.66	3318.00
980.08	3365.00
980.50	3353.00
980.92	3368.00
981.34	3308.00
981.76	3330.00
982.18	3369.00
982.60	3365.00
983.02	3373.00
983.44	3372.00
983.86	3349.00
984.28	3356.00
984.70	3368.00
985.12	3383.00
985.54	3348.00
985.96	3324.00
986.38	3324.00
986.80	3370.00
987.23	3349.00
987.65	3346.00
988.07	3373.00
988.49	3325.00
988.91	3357.00
989.33	3317.00
989.74	3371.00
990.16	3350.00
990.58	3317.00
991.00	3327.00
991.42	3342.00
991.84	3303.00
992.26	3336.00
992.68	3335.00
993.10	3311.00
993.52	3322.00
993.94	3327.00
994.36	3323.00
994.78	3282.00
995.20	3330.00
995.62	3330.00
996.04	3308.00
996.46	3325.00
996.88	3306.00
997.30	3305.00
997.71	3353.00
998.13	3344.00
998.55	3360.00
998.97	3344.00
999.39	3357.00
999.81	3347.00
1000.23	3330.00
1000.65	3347.00
1001.07	3291.00
1001.49	3347.00
1001.90	3311.00
1002.32	3311.00
1002.74	3298.00
1003.16	3268.00
1003.58	3276.00
1004.00	3320.00
1004.42	3296.00
1004.83	3296.00
1005.25	3262.00
1005.67	3280.00
1006.09	3277.00
1006.51	3316.00
1006.92	3284.00
1007.34	3283.00
1007.76	3261.00
1008.18	3276.00
1008.60	3279.00
1009.02	3260.00
1009.43	3290.00
1009.85	3303.00
1010.27	3272.00
1010.69	3267.00
1011.10	3281.00
1011.52	3242.00
1011.94	3259.00
1012.36	3268.00
1012.78	3250.00
1013.19	3248.00
1013.61	3223.00
1014.03	3215.00
1014.45	3241.00
1014.86	3234.00
1015.28	3185.00
1015.70	3211.00
1016.12	3213.00
1016.53	3218.00
1016.95	3189.00
1017.37	3188.00
1017.78	3180.00
1018.20	3166.00
1018.62	3171.00
1019.03	3186.00
1019.45	3140.00
1019.87	3136.00
1020.29	3154.00
1020.70	3117.00
1021.12	3147.00
1021.54	3149.00
1021.95	3142.00
1022.37	3153.00
1022.79	3112.00
1023.20	3119.00
1023.62	3115.00
1024.04	3097.00
1024.45	3096.00
1024.87	3110.00
1025.28	3106.00
1025.70	3107.00
1026.12	3091.00
1026.53	3093.00
1026.95	3089.00
1027.37	3072.00
1027.78	3080.00
1028.20	3067.00
1028.61	3076.00
1029.03	3069.00
1029.45	3054.00
1029.86	3050.00
1030.28	3015.00
1030.69	3038.00
1031.11	3033.00
1031.53	3022.00
1031.94	3064.00
1032.36	3001.00
1032.77	3041.00
1033.19	3021.00
1033.60	2994.00
1034.02	3024.00
1034.43	2997.00
1034.85	2976.00
1035.27	2999.00
1035.68	3003.00
1036.10	2999.00
1036.51	2973.00
1036.93	3012.00
1037.34	2973.00
1037.76	2972.00
1038.17	2984.00
1038.59	2985.00
1039.00	2949.00
1039.42	2958.00
1039.83	2970.00
1040.25	2943.00
1040.66	2935.00
1041.08	2953.00
1041.49	2944.00
1041.91	2932.00
1042.32	2909.00
1042.73	2928.00
1043.15	2895.00
1043.56	2903.00
1043.98	2933.00
1044.39	2893.00
1044.81	2911.00
1045.22	2894.00
1045.64	2900.00
1046.05	2879.00
1046.46	2893.00
1046.88	2889.00
1047.29	2878.00
1047.71	2881.00
1048.12	2874.00
1048.53	2882.00
1048.95	2882.00
1049.36	2874.00
1049.78	2852.00
1050.19	2853.00
1050.60	2857.00
1051.02	2861.00
1051.43	2829.00
1051.85	2846.00
1052.26	2834.00
1052.67	2835.00
1053.09	2835.00
1053.50	2827.00
1053.91	2842.00
1054.33	2828.00
1054.74	2835.00
1055.15	2815.00
1055.57	2814.00
1055.98	2810.00
1056.39	2813.00
1056.81	2801.00
1057.22	2801.00
1057.63	2787.00
1058.05	2810.00
1058.46	2782.00
1058.87	2782.00
1059.28	2793.00
1059.70	2796.00
1060.11	2782.00
1060.52	2778.00
1060.94	2785.00
1061.35	2778.00
1061.76	2782.00
1062.17	2778.00
1062.59	2770.00
1063.00	2767.00
1063.41	2756.00
1063.82	2745.00
1064.24	2762.00
1064.65	2766.00
1065.06	2770.00
1065.47	2766.00
1065.89	2758.00
1066.30	2751.00
1066.71	2752.00
1067.12	2752.00
1067.53	2736.00
1067.95	2726.00
1068.36	2738.00
1068.77	2738.00
1069.18	2729.00
1069.59	2727.00
1070.00	2737.00
1070.42	2723.00
1070.83	2723.00
1071.24	2734.00
1071.65	2728.00
1072.06	2729.00
1072.47	2730.00
1072.89	2707.00
1073.30	2735.00
1073.71	2724.00
1074.12	2719.00
1074.53	2717.00
1074.94	2711.00
1075.35	2719.00
1075.77	2709.00
1076.18	2703.00
1076.59	2713.00
1077.00	2713.00
1077.41	2700.00
1077.82	2713.00
1078.23	2691.00
1078.64	2696.00
1079.05	2708.00
1079.46	2703.00
1079.87	2709.00
1080.29	2699.00
1080.70	2682.00
1081.11	2692.00
1081.52	2672.00
1081.93	2674.00
1082.34	2667.00
1082.75	2685.00
1083.16	2684.00
1083.57	2675.00
1083.98	2676.00
1084.39	2675.00
1084.80	2658.00
1085.21	2669.00
1085.62	2672.00
1086.03	2684.00
1086.44	2676.00
1086.85	2655.00
1087.26	2671.00
1087.67	2670.00
1088.08	2665.00
1088.49	2670.00
1088.90	2658.00
1089.31	2663.00
1089.72	2659.00
1090.13	2667.00
1090.54	2668.00
1090.95	2649.00
1091.36	2658.00
1091.77	2655.00
1092.18	2647.00
1092.59	2656.00
1093.00	2650.00
1093.40	2652.00
1093.81	2654.00
1094.22	2645.00
1094.63	2651.00
1095.04	2644.00
1095.45	2643.00
1095.86	2645.00
1096.27	2642.00
1096.68	2640.00
1097.09	2633.00
1097.50	2633.00
1097.90	2631.00
1098.31	2635.00
1098.72	2628.00
1099.13	2633.00
1099.54	2635.00
1099.95	2619.00
1100.36	2625.00
1100.76	2631.00
1101.17	2629.00
1101.58	2631.00
1101.99	2627.00
1102.40	2629.00
1102.81	2617.00
1103.22	2617.00
1103.62	2614.00
1104.03	2623.00
1104.44	2608.00
1104.85	2621.00
1105.26	2618.00
1105.66	2623.00
1106.07	2612.00
1106.48	2618.00
1106.89	2618.00
1107.30	2609.00
1107.70	2603.00
1108.11	2617.00
1108.52	2611.00
1108.93	2612.00
1109.33	2605.00
1109.74	2601.00
1110.15	2609.00
1110.56	2607.00
1110.96	2611.00
1111.37	2604.00
1111.78	2607.00
1112.19	2608.00
1112.59	2610.00
1113.00	2611.00
1113.41	2612.00
1113.81	2602.00
1114.22	2612.00
1114.63	2577.00
1115.03	2578.00
1115.44	2573.00
1115.85	2578.00
>>>>>End Processed Spectral Data<<<<<
