SpectraSuite Data File
++++++++++++++++++++++++++++++++++++
Date: Thu Aug 05 10:45:32 EEST 2021
User: CanSEE
Dark Spectrum Present: No
Reference Spectrum Present: No
Number of Sampled Component Spectra: 1
Spectrometers: MAYP112785
Integration Time (usec): 10000 (MAYP112785)
Spectra Averaged: 1 (MAYP112785)
Boxcar Smoothing: 0 (MAYP112785)
Correct for Electrical Dark: No (MAYP112785)
Strobe/Lamp Enabled: No (MAYP112785)
Correct for Detector Non-linearity: No (MAYP112785)
Correct for Stray Light: No (MAYP112785)
Number of Pixels in Processed Spectrum: 2068
>>>>>Begin Processed Spectral Data<<<<<
198.35	3481.00
198.82	2487.00
199.30	2589.00
199.77	2576.00
200.24	2601.00
200.71	2608.00
201.18	2607.00
201.65	2605.00
202.13	2609.00
202.60	2613.00
203.07	2614.00
203.54	2608.00
204.01	2604.00
204.48	2607.00
204.96	2597.00
205.43	2614.00
205.90	2607.00
206.37	2610.00
206.84	2603.00
207.31	2605.00
207.78	2600.00
208.26	2602.00
208.73	2603.00
209.20	2611.00
209.67	2606.00
210.14	2609.00
210.61	2611.00
211.08	2606.00
211.56	2600.00
212.03	2614.00
212.50	2610.00
212.97	2608.00
213.44	2604.00
213.91	2605.00
214.38	2612.00
214.85	2599.00
215.33	2607.00
215.80	2605.00
216.27	2603.00
216.74	2605.00
217.21	2601.00
217.68	2601.00
218.15	2602.00
218.62	2609.00
219.09	2599.00
219.57	2603.00
220.04	2610.00
220.51	2602.00
220.98	2603.00
221.45	2609.00
221.92	2610.00
222.39	2606.00
222.86	2605.00
223.33	2602.00
223.80	2607.00
224.27	2602.00
224.74	2602.00
225.22	2613.00
225.69	2606.00
226.16	2605.00
226.63	2617.00
227.10	2613.00
227.57	2608.00
228.04	2596.00
228.51	2607.00
228.98	2609.00
229.45	2608.00
229.92	2615.00
230.39	2606.00
230.86	2613.00
231.33	2602.00
231.80	2606.00
232.27	2603.00
232.75	2603.00
233.22	2606.00
233.69	2614.00
234.16	2605.00
234.63	2616.00
235.10	2604.00
235.57	2609.00
236.04	2605.00
236.51	2603.00
236.98	2598.00
237.45	2606.00
237.92	2603.00
238.39	2597.00
238.86	2604.00
239.33	2664.00
239.80	2603.00
240.27	2607.00
240.74	2607.00
241.21	2605.00
241.68	2608.00
242.15	2608.00
242.62	2607.00
243.09	2601.00
243.56	2617.00
244.03	2614.00
244.50	2609.00
244.97	2608.00
245.44	2623.00
245.91	2608.00
246.38	2603.00
246.85	2613.00
247.32	2610.00
247.79	2612.00
248.26	2608.00
248.73	2600.00
249.20	2602.00
249.67	2607.00
250.14	2610.00
250.61	2609.00
251.08	2621.00
251.55	2609.00
252.02	2606.00
252.49	2611.00
252.96	2611.00
253.43	2611.00
253.90	2611.00
254.37	2613.00
254.84	2604.00
255.31	2604.00
255.77	2615.00
256.24	2611.00
256.71	2606.00
257.18	2606.00
257.65	2609.00
258.12	2608.00
258.59	2605.00
259.06	2607.00
259.53	2611.00
260.00	2619.00
260.47	2612.00
260.94	2606.00
261.41	2610.00
261.88	2612.00
262.35	2617.00
262.81	2612.00
263.28	2615.00
263.75	2609.00
264.22	2609.00
264.69	2612.00
265.16	2600.00
265.63	2607.00
266.10	2607.00
266.57	2615.00
267.04	2617.00
267.51	2607.00
267.97	2615.00
268.44	2614.00
268.91	2610.00
269.38	2603.00
269.85	2613.00
270.32	2609.00
270.79	2607.00
271.26	2608.00
271.73	2608.00
272.19	2610.00
272.66	2616.00
273.13	2604.00
273.60	2612.00
274.07	2609.00
274.54	2611.00
275.01	2612.00
275.48	2600.00
275.94	2613.00
276.41	2606.00
276.88	2605.00
277.35	2609.00
277.82	2602.00
278.29	2608.00
278.76	2614.00
279.22	2605.00
279.69	2604.00
280.16	2613.00
280.63	2596.00
281.10	2613.00
281.57	2612.00
282.04	2608.00
282.50	2614.00
282.97	2612.00
283.44	2607.00
283.91	2596.00
284.38	2613.00
284.85	2606.00
285.31	2611.00
285.78	2604.00
286.25	2605.00
286.72	2610.00
287.19	2605.00
287.65	2604.00
288.12	2601.00
288.59	2607.00
289.06	2605.00
289.53	2609.00
289.99	2605.00
290.46	2612.00
290.93	2611.00
291.40	2607.00
291.87	2610.00
292.33	2614.00
292.80	2601.00
293.27	2608.00
293.74	2599.00
294.21	2612.00
294.67	2604.00
295.14	2603.00
295.61	2613.00
296.08	2611.00
296.54	2605.00
297.01	2604.00
297.48	2607.00
297.95	2608.00
298.42	2613.00
298.88	2610.00
299.35	2609.00
299.82	2603.00
300.29	2606.00
300.75	2605.00
301.22	2605.00
301.69	2609.00
302.16	2615.00
302.62	2609.00
303.09	2612.00
303.56	2612.00
304.03	2611.00
304.49	2608.00
304.96	2616.00
305.43	2616.00
305.90	2606.00
306.36	2610.00
306.83	2622.00
307.30	2619.00
307.76	2617.00
308.23	2628.00
308.70	2632.00
309.17	2631.00
309.63	2621.00
310.10	2626.00
310.57	2627.00
311.03	2644.00
311.50	2647.00
311.97	2643.00
312.44	2651.00
312.90	2646.00
313.37	2658.00
313.84	2661.00
314.30	2667.00
314.77	2662.00
315.24	2665.00
315.70	2673.00
316.17	2664.00
316.64	2678.00
317.10	2711.00
317.57	2698.00
318.04	2692.00
318.50	2698.00
318.97	2702.00
319.44	2701.00
319.90	2703.00
320.37	2725.00
320.84	2733.00
321.30	2720.00
321.77	2719.00
322.24	2721.00
322.70	2718.00
323.17	2732.00
323.64	2725.00
324.10	2744.00
324.57	2743.00
325.04	2756.00
325.50	2763.00
325.97	2804.00
326.44	2802.00
326.90	2810.00
327.37	2802.00
327.84	2813.00
328.30	2795.00
328.77	2829.00
329.23	2828.00
329.70	2840.00
330.17	2867.00
330.63	2844.00
331.10	2817.00
331.56	2813.00
332.03	2833.00
332.50	2842.00
332.96	2834.00
333.43	2827.00
333.90	2836.00
334.36	2832.00
334.83	2844.00
335.29	2842.00
335.76	2842.00
336.22	2842.00
336.69	2805.00
337.16	2829.00
337.62	2831.00
338.09	2854.00
338.55	2858.00
339.02	2851.00
339.49	2858.00
339.95	2878.00
340.42	2879.00
340.88	2888.00
341.35	2866.00
341.81	2862.00
342.28	2871.00
342.75	2899.00
343.21	2894.00
343.68	2881.00
344.14	2867.00
344.61	2852.00
345.07	2866.00
345.54	2892.00
346.00	2904.00
346.47	2892.00
346.93	2889.00
347.40	2915.00
347.87	2911.00
348.33	2900.00
348.80	2909.00
349.26	2915.00
349.73	2895.00
350.19	2932.00
350.66	2975.00
351.12	2970.00
351.59	2931.00
352.05	2936.00
352.52	2943.00
352.98	2930.00
353.45	2981.00
353.91	2981.00
354.38	2977.00
354.84	3005.00
355.31	2982.00
355.77	2950.00
356.24	2959.00
356.70	2919.00
357.17	2911.00
357.63	2928.00
358.10	2888.00
358.56	2900.00
359.03	2899.00
359.49	2960.00
359.96	2982.00
360.42	2982.00
360.89	2973.00
361.35	2945.00
361.82	2950.00
362.28	2983.00
362.75	2998.00
363.21	3006.00
363.67	3010.00
364.14	3023.00
364.60	3033.00
365.07	3004.00
365.53	3038.00
366.00	3073.00
366.46	3112.00
366.93	3093.00
367.39	3080.00
367.86	3104.00
368.32	3041.00
368.78	3071.00
369.25	3109.00
369.71	3104.00
370.18	3102.00
370.64	3093.00
371.11	3062.00
371.57	3083.00
372.03	3090.00
372.50	3040.00
372.96	3039.00
373.43	3044.00
373.89	3012.00
374.35	3009.00
374.82	3049.00
375.28	3054.00
375.75	3097.00
376.21	3144.00
376.67	3137.00
377.14	3149.00
377.60	3165.00
378.07	3233.00
378.53	3215.00
378.99	3188.00
379.46	3148.00
379.92	3132.00
380.39	3131.00
380.85	3162.00
381.31	3139.00
381.78	3113.00
382.24	3068.00
382.70	3042.00
383.17	3013.00
383.63	2992.00
384.09	3048.00
384.56	3098.00
385.02	3164.00
385.48	3154.00
385.95	3117.00
386.41	3133.00
386.88	3166.00
387.34	3193.00
387.80	3176.00
388.27	3218.00
388.73	3184.00
389.19	3258.00
389.66	3285.00
390.12	3318.00
390.58	3309.00
391.05	3327.00
391.51	3328.00
391.97	3323.00
392.43	3243.00
392.90	3176.00
393.36	3067.00
393.82	3047.00
394.29	3202.00
394.75	3267.00
395.21	3287.00
395.68	3292.00
396.14	3339.00
396.60	3248.00
397.07	3186.00
397.53	3221.00
397.99	3435.00
398.45	3555.00
398.92	3633.00
399.38	3665.00
399.84	3731.00
400.31	3719.00
400.77	3765.00
401.23	3733.00
401.69	3791.00
402.16	3814.00
402.62	3838.00
403.08	3770.00
403.54	3746.00
404.01	3768.00
404.47	3791.00
404.93	3796.00
405.39	3755.00
405.86	3782.00
406.32	3747.00
406.78	3748.00
407.24	3773.00
407.71	3777.00
408.17	3864.00
408.63	3836.00
409.09	3888.00
409.56	3899.00
410.02	3871.00
410.48	3810.00
410.94	3866.00
411.40	3934.00
411.87	3944.00
412.33	3982.00
412.79	4027.00
413.25	3948.00
413.71	3978.00
414.18	4006.00
414.64	3976.00
415.10	3994.00
415.56	3997.00
416.02	4007.00
416.49	4007.00
416.95	4026.00
417.41	4001.00
417.87	4011.00
418.33	3957.00
418.80	4009.00
419.26	4043.00
419.72	4040.00
420.18	4030.00
420.64	4032.00
421.10	4114.00
421.57	4053.00
422.03	4067.00
422.49	4044.00
422.95	3990.00
423.41	4018.00
423.87	4072.00
424.34	4091.00
424.80	4093.00
425.26	4100.00
425.72	4050.00
426.18	4018.00
426.64	4062.00
427.10	4075.00
427.57	4004.00
428.03	4000.00
428.49	4027.00
428.95	3997.00
429.41	3896.00
429.87	3899.00
430.33	3891.00
430.79	3829.00
431.26	3917.00
431.72	4015.00
432.18	4218.00
432.64	4171.00
433.10	4199.00
433.56	4207.00
434.02	4206.00
434.48	4141.00
434.94	4191.00
435.40	4292.00
435.87	4349.00
436.33	4321.00
436.79	4355.00
437.25	4348.00
437.71	4323.00
438.17	4297.00
438.63	4246.00
439.09	4215.00
439.55	4300.00
440.01	4430.00
440.47	4375.00
440.93	4385.00
441.39	4494.00
441.85	4493.00
442.32	4554.00
442.78	4563.00
443.24	4569.00
443.70	4597.00
444.16	4567.00
444.62	4604.00
445.08	4609.00
445.54	4574.00
446.00	4569.00
446.46	4503.00
446.92	4592.00
447.38	4691.00
447.84	4700.00
448.30	4706.00
448.76	4746.00
449.22	4737.00
449.68	4782.00
450.14	4826.00
450.60	4859.00
451.06	4956.00
451.52	4817.00
451.98	4800.00
452.44	4783.00
452.90	4741.00
453.36	4683.00
453.82	4753.00
454.28	4802.00
454.74	4842.00
455.20	4779.00
455.66	4852.00
456.12	4897.00
456.58	4898.00
457.04	4974.00
457.50	4933.00
457.96	4941.00
458.42	4870.00
458.88	4895.00
459.34	4891.00
459.80	4894.00
460.26	4924.00
460.72	4974.00
461.18	4987.00
461.64	4967.00
462.10	5062.00
462.55	5031.00
463.01	5011.00
463.47	5035.00
463.93	5019.00
464.39	4970.00
464.85	5048.00
465.31	4947.00
465.77	4964.00
466.23	4960.00
466.69	4985.00
467.15	4942.00
467.61	4908.00
468.07	4995.00
468.52	5055.00
468.98	4988.00
469.44	4967.00
469.90	5004.00
470.36	4988.00
470.82	5039.00
471.28	5045.00
471.74	5129.00
472.20	5089.00
472.66	5100.00
473.11	5139.00
473.57	5087.00
474.03	5125.00
474.49	5135.00
474.95	5118.00
475.41	5069.00
475.87	5148.00
476.33	5107.00
476.78	5160.00
477.24	5177.00
477.70	5158.00
478.16	5187.00
478.62	5233.00
479.08	5278.00
479.54	5290.00
479.99	5231.00
480.45	5268.00
480.91	5291.00
481.37	5284.00
481.83	5295.00
482.29	5285.00
482.74	5257.00
483.20	5263.00
483.66	5209.00
484.12	5249.00
484.58	5212.00
485.04	5098.00
485.49	5017.00
485.95	4968.00
486.41	4957.00
486.87	4955.00
487.33	5020.00
487.78	5117.00
488.24	5167.00
488.70	5207.00
489.16	5202.00
489.62	5248.00
490.07	5309.00
490.53	5260.00
490.99	5273.00
491.45	5138.00
491.90	5262.00
492.36	5222.00
492.82	5197.00
493.28	5304.00
493.74	5334.00
494.19	5290.00
494.65	5362.00
495.11	5331.00
495.57	5380.00
496.02	5347.00
496.48	5374.00
496.94	5370.00
497.40	5403.00
497.85	5352.00
498.31	5347.00
498.77	5339.00
499.23	5311.00
499.68	5334.00
500.14	5273.00
500.60	5275.00
501.06	5193.00
501.51	5186.00
501.97	5232.00
502.43	5305.00
502.88	5298.00
503.34	5331.00
503.80	5317.00
504.26	5283.00
504.71	5297.00
505.17	5359.00
505.63	5352.00
506.08	5423.00
506.54	5416.00
507.00	5390.00
507.45	5369.00
507.91	5408.00
508.37	5383.00
508.82	5421.00
509.28	5382.00
509.74	5411.00
510.19	5469.00
510.65	5407.00
511.11	5467.00
511.56	5442.00
512.02	5506.00
512.48	5526.00
512.93	5428.00
513.39	5415.00
513.85	5400.00
514.30	5417.00
514.76	5398.00
515.22	5458.00
515.67	5390.00
516.13	5237.00
516.59	5246.00
517.04	5193.00
517.50	5110.00
517.95	5134.00
518.41	5258.00
518.87	5299.00
519.32	5335.00
519.78	5431.00
520.24	5485.00
520.69	5457.00
521.15	5485.00
521.60	5507.00
522.06	5446.00
522.52	5493.00
522.97	5554.00
523.43	5497.00
523.88	5570.00
524.34	5570.00
524.80	5603.00
525.25	5564.00
525.71	5502.00
526.16	5436.00
526.62	5409.00
527.07	5409.00
527.53	5351.00
527.99	5550.00
528.44	5696.00
528.90	5680.00
529.35	5623.00
529.81	5649.00
530.26	5636.00
530.72	5642.00
531.17	5688.00
531.63	5678.00
532.09	5664.00
532.54	5512.00
533.00	5571.00
533.45	5580.00
533.91	5659.00
534.36	5670.00
534.82	5763.00
535.27	5693.00
535.73	5712.00
536.18	5744.00
536.64	5718.00
537.09	5692.00
537.55	5723.00
538.00	5653.00
538.46	5719.00
538.91	5685.00
539.37	5613.00
539.82	5565.00
540.28	5594.00
540.73	5656.00
541.19	5649.00
541.64	5619.00
542.10	5691.00
542.55	5666.00
543.01	5638.00
543.46	5737.00
543.92	5665.00
544.37	5751.00
544.83	5702.00
545.28	5709.00
545.74	5738.00
546.19	5766.00
546.64	5779.00
547.10	5636.00
547.55	5757.00
548.01	5706.00
548.46	5735.00
548.92	5753.00
549.37	5833.00
549.83	5760.00
550.28	5756.00
550.73	5767.00
551.19	5742.00
551.64	5777.00
552.10	5766.00
552.55	5805.00
553.00	5787.00
553.46	5820.00
553.91	5803.00
554.37	5862.00
554.82	5801.00
555.28	5917.00
555.73	5788.00
556.18	5771.00
556.64	5729.00
557.09	5804.00
557.54	5716.00
558.00	5759.00
558.45	5697.00
558.91	5653.00
559.36	5662.00
559.81	5682.00
560.27	5745.00
560.72	5750.00
561.17	5767.00
561.63	5771.00
562.08	5790.00
562.54	5772.00
562.99	5740.00
563.44	5820.00
563.90	5792.00
564.35	5788.00
564.80	5722.00
565.26	5687.00
565.71	5749.00
566.16	5804.00
566.62	5765.00
567.07	5770.00
567.52	5724.00
567.98	5717.00
568.43	5752.00
568.88	5802.00
569.34	5805.00
569.79	5681.00
570.24	5743.00
570.69	5694.00
571.15	5649.00
571.60	5732.00
572.05	5818.00
572.51	5813.00
572.96	5830.00
573.41	5696.00
573.86	5797.00
574.32	5780.00
574.77	5837.00
575.22	5742.00
575.68	5757.00
576.13	5774.00
576.58	5812.00
577.03	5829.00
577.49	5775.00
577.94	5727.00
578.39	5705.00
578.84	5768.00
579.30	5802.00
579.75	5863.00
580.20	5892.00
580.65	5864.00
581.11	5863.00
581.56	5862.00
582.01	5916.00
582.46	5921.00
582.92	5927.00
583.37	5890.00
583.82	5956.00
584.27	5898.00
584.72	5882.00
585.18	5875.00
585.63	5817.00
586.08	5859.00
586.53	5895.00
586.98	5829.00
587.44	5885.00
587.89	5858.00
588.34	5776.00
588.79	5620.00
589.24	5543.00
589.70	5554.00
590.15	5577.00
590.60	5653.00
591.05	5734.00
591.50	5756.00
591.96	5827.00
592.41	5749.00
592.86	5759.00
593.31	5810.00
593.76	5856.00
594.21	5782.00
594.66	5788.00
595.12	5721.00
595.57	5819.00
596.02	5783.00
596.47	5760.00
596.92	5794.00
597.37	5810.00
597.82	5797.00
598.28	5742.00
598.73	5835.00
599.18	5783.00
599.63	5797.00
600.08	5871.00
600.53	5795.00
600.98	5747.00
601.43	5801.00
601.88	5725.00
602.34	5792.00
602.79	5813.00
603.24	5847.00
603.69	5776.00
604.14	5916.00
604.59	5894.00
605.04	5898.00
605.49	5869.00
605.94	5906.00
606.39	5916.00
606.84	5857.00
607.30	5908.00
607.75	5879.00
608.20	5860.00
608.65	5862.00
609.10	5920.00
609.55	5909.00
610.00	5791.00
610.45	5839.00
610.90	5833.00
611.35	5893.00
611.80	5899.00
612.25	5839.00
612.70	5810.00
613.15	5831.00
613.60	5797.00
614.05	5838.00
614.50	5801.00
614.95	5854.00
615.40	5823.00
615.85	5800.00
616.30	5783.00
616.75	5765.00
617.20	5780.00
617.65	5818.00
618.10	5873.00
618.55	5903.00
619.00	5833.00
619.45	5877.00
619.90	5869.00
620.35	5887.00
620.80	5941.00
621.25	5854.00
621.70	5886.00
622.15	5834.00
622.60	5847.00
623.05	5785.00
623.50	5847.00
623.95	5712.00
624.40	5782.00
624.85	5835.00
625.30	5750.00
625.75	5736.00
626.20	5763.00
626.65	5775.00
627.10	5820.00
627.55	5725.00
627.99	5763.00
628.44	5728.00
628.89	5657.00
629.34	5774.00
629.79	5739.00
630.24	5790.00
630.69	5687.00
631.14	5754.00
631.59	5788.00
632.04	5752.00
632.49	5812.00
632.94	5806.00
633.38	5875.00
633.83	5815.00
634.28	5828.00
634.73	5831.00
635.18	5858.00
635.63	5892.00
636.08	5870.00
636.53	5866.00
636.97	5859.00
637.42	5919.00
637.87	5922.00
638.32	5949.00
638.77	6033.00
639.22	5941.00
639.67	5921.00
640.11	5907.00
640.56	5880.00
641.01	5871.00
641.46	5932.00
641.91	5896.00
642.36	5874.00
642.81	5985.00
643.25	5920.00
643.70	5885.00
644.15	5955.00
644.60	5886.00
645.05	5858.00
645.49	5904.00
645.94	5887.00
646.39	5881.00
646.84	5804.00
647.29	5843.00
647.73	5771.00
648.18	5779.00
648.63	5820.00
649.08	5765.00
649.53	5726.00
649.97	5709.00
650.42	5786.00
650.87	5826.00
651.32	5819.00
651.77	5800.00
652.21	5833.00
652.66	5879.00
653.11	5842.00
653.56	5894.00
654.00	5888.00
654.45	5806.00
654.90	5756.00
655.35	5711.00
655.79	5536.00
656.24	5353.00
656.69	5351.00
657.14	5447.00
657.58	5692.00
658.03	5823.00
658.48	5791.00
658.92	5772.00
659.37	5810.00
659.82	5884.00
660.27	5853.00
660.71	5883.00
661.16	5922.00
661.61	6040.00
662.05	5886.00
662.50	5905.00
662.95	5930.00
663.39	5964.00
663.84	5917.00
664.29	5842.00
664.74	5926.00
665.18	5905.00
665.63	5930.00
666.08	5946.00
666.52	5882.00
666.97	5941.00
667.42	5902.00
667.86	5818.00
668.31	5928.00
668.76	5942.00
669.20	5920.00
669.65	5898.00
670.09	5909.00
670.54	5812.00
670.99	5877.00
671.43	5850.00
671.88	5877.00
672.33	5829.00
672.77	5849.00
673.22	5886.00
673.66	5805.00
674.11	5830.00
674.56	5887.00
675.00	5877.00
675.45	5818.00
675.90	5817.00
676.34	5807.00
676.79	5873.00
677.23	5856.00
677.68	5813.00
678.12	5833.00
678.57	5825.00
679.02	5854.00
679.46	5861.00
679.91	5843.00
680.35	5867.00
680.80	5824.00
681.25	5791.00
681.69	5819.00
682.14	5830.00
682.58	5783.00
683.03	5739.00
683.47	5794.00
683.92	5824.00
684.36	5736.00
684.81	5765.00
685.25	5866.00
685.70	5785.00
686.15	5733.00
686.59	5425.00
687.04	5077.00
687.48	4888.00
687.93	4904.00
688.37	5215.00
688.82	5256.00
689.26	5225.00
689.71	5230.00
690.15	5239.00
690.60	5316.00
691.04	5419.00
691.49	5483.00
691.93	5489.00
692.38	5534.00
692.82	5505.00
693.27	5502.00
693.71	5485.00
694.16	5431.00
694.60	5361.00
695.04	5461.00
695.49	5517.00
695.93	5526.00
696.38	5517.00
696.82	5602.00
697.27	5657.00
697.71	5649.00
698.16	5592.00
698.60	5479.00
699.04	5487.00
699.49	5524.00
699.93	5554.00
700.38	5530.00
700.82	5449.00
701.27	5461.00
701.71	5433.00
702.15	5417.00
702.60	5408.00
703.04	5486.00
703.49	5573.00
703.93	5532.00
704.37	5604.00
704.82	5534.00
705.26	5549.00
705.71	5540.00
706.15	5544.00
706.59	5547.00
707.04	5555.00
707.48	5564.00
707.93	5555.00
708.37	5549.00
708.81	5547.00
709.26	5548.00
709.70	5555.00
710.14	5596.00
710.59	5554.00
711.03	5579.00
711.47	5526.00
711.92	5566.00
712.36	5516.00
712.80	5567.00
713.25	5518.00
713.69	5565.00
714.13	5498.00
714.58	5506.00
715.02	5462.00
715.46	5454.00
715.91	5367.00
716.35	5350.00
716.79	5143.00
717.24	5009.00
717.68	4909.00
718.12	4825.00
718.57	4820.00
719.01	4733.00
719.45	4667.00
719.89	4724.00
720.34	4682.00
720.78	4762.00
721.22	4946.00
721.66	5117.00
722.11	5189.00
722.55	5160.00
722.99	5113.00
723.44	4939.00
723.88	4897.00
724.32	4858.00
724.76	4849.00
725.21	4889.00
725.65	4865.00
726.09	4919.00
726.53	4892.00
726.97	4997.00
727.42	4916.00
727.86	4838.00
728.30	4931.00
728.74	4928.00
729.19	4847.00
729.63	4876.00
730.07	4930.00
730.51	4951.00
730.95	4872.00
731.40	4951.00
731.84	5029.00
732.28	5074.00
732.72	5198.00
733.16	5111.00
733.61	5201.00
734.05	5237.00
734.49	5212.00
734.93	5236.00
735.37	5186.00
735.81	5219.00
736.26	5203.00
736.70	5225.00
737.14	5236.00
737.58	5269.00
738.02	5199.00
738.46	5238.00
738.90	5172.00
739.35	5156.00
739.79	5177.00
740.23	5257.00
740.67	5250.00
741.11	5204.00
741.55	5221.00
741.99	5172.00
742.44	5218.00
742.88	5288.00
743.32	5237.00
743.76	5239.00
744.20	5241.00
744.64	5159.00
745.08	5236.00
745.52	5301.00
745.96	5248.00
746.40	5299.00
746.84	5253.00
747.29	5334.00
747.73	5311.00
748.17	5227.00
748.61	5241.00
749.05	5290.00
749.49	5251.00
749.93	5289.00
750.37	5285.00
750.81	5313.00
751.25	5281.00
751.69	5286.00
752.13	5283.00
752.57	5268.00
753.01	5294.00
753.45	5239.00
753.89	5288.00
754.33	5237.00
754.77	5287.00
755.21	5307.00
755.65	5307.00
756.09	5283.00
756.53	5245.00
756.97	5281.00
757.41	5254.00
757.85	5241.00
758.29	5217.00
758.73	5117.00
759.17	4958.00
759.61	4366.00
760.05	3621.00
760.49	3158.00
760.93	3063.00
761.37	3263.00
761.81	3743.00
762.25	3982.00
762.69	3771.00
763.13	3657.00
763.57	3635.00
764.01	3702.00
764.45	3886.00
764.89	4017.00
765.33	4192.00
765.77	4329.00
766.21	4473.00
766.65	4644.00
767.09	4818.00
767.53	4892.00
767.96	5015.00
768.40	5030.00
768.84	5049.00
769.28	5025.00
769.72	5015.00
770.16	5129.00
770.60	5150.00
771.04	5193.00
771.48	5155.00
771.92	5102.00
772.35	5142.00
772.79	5176.00
773.23	5122.00
773.67	5175.00
774.11	5112.00
774.55	5098.00
774.99	5108.00
775.43	5046.00
775.86	5104.00
776.30	5126.00
776.74	5096.00
777.18	5147.00
777.62	5117.00
778.06	5128.00
778.50	5065.00
778.93	5091.00
779.37	5070.00
779.81	5020.00
780.25	5023.00
780.69	5098.00
781.12	5001.00
781.56	5031.00
782.00	5055.00
782.44	5033.00
782.88	5081.00
783.32	5057.00
783.75	5045.00
784.19	5011.00
784.63	5028.00
785.07	5037.00
785.50	5019.00
785.94	5014.00
786.38	4991.00
786.82	5008.00
787.26	4970.00
787.69	4965.00
788.13	4965.00
788.57	4944.00
789.01	4933.00
789.44	4939.00
789.88	4854.00
790.32	4836.00
790.76	4846.00
791.19	4878.00
791.63	4854.00
792.07	4810.00
792.51	4769.00
792.94	4746.00
793.38	4783.00
793.82	4820.00
794.25	4827.00
794.69	4815.00
795.13	4821.00
795.56	4881.00
796.00	4774.00
796.44	4738.00
796.88	4768.00
797.31	4797.00
797.75	4776.00
798.19	4790.00
798.62	4789.00
799.06	4789.00
799.50	4795.00
799.93	4736.00
800.37	4709.00
800.81	4790.00
801.24	4700.00
801.68	4739.00
802.12	4746.00
802.55	4750.00
802.99	4681.00
803.43	4637.00
803.86	4704.00
804.30	4677.00
804.73	4666.00
805.17	4639.00
805.61	4722.00
806.04	4715.00
806.48	4705.00
806.92	4694.00
807.35	4729.00
807.79	4728.00
808.22	4682.00
808.66	4581.00
809.10	4653.00
809.53	4600.00
809.97	4581.00
810.40	4608.00
810.84	4569.00
811.27	4564.00
811.71	4550.00
812.15	4573.00
812.58	4503.00
813.02	4483.00
813.45	4372.00
813.89	4327.00
814.32	4296.00
814.76	4261.00
815.19	4185.00
815.63	4169.00
816.07	4071.00
816.50	4049.00
816.94	4101.00
817.37	4221.00
817.81	4113.00
818.24	4102.00
818.68	4225.00
819.11	4183.00
819.55	4208.00
819.98	4146.00
820.42	4340.00
820.85	4400.00
821.29	4334.00
821.72	4282.00
822.16	4214.00
822.59	4042.00
823.03	3812.00
823.46	3963.00
823.90	4162.00
824.33	4288.00
824.77	4334.00
825.20	4409.00
825.63	4341.00
826.07	4286.00
826.50	4327.00
826.94	4367.00
827.37	4215.00
827.81	4139.00
828.24	4177.00
828.68	4202.00
829.11	4225.00
829.54	4190.00
829.98	4219.00
830.41	4226.00
830.85	4261.00
831.28	4332.00
831.71	4253.00
832.15	4258.00
832.58	4304.00
833.02	4306.00
833.45	4265.00
833.88	4260.00
834.32	4286.00
834.75	4325.00
835.19	4316.00
835.62	4330.00
836.05	4296.00
836.49	4326.00
836.92	4326.00
837.35	4360.00
837.79	4374.00
838.22	4381.00
838.66	4395.00
839.09	4459.00
839.52	4397.00
839.96	4416.00
840.39	4435.00
840.82	4377.00
841.26	4328.00
841.69	4366.00
842.12	4342.00
842.56	4367.00
842.99	4377.00
843.42	4425.00
843.85	4360.00
844.29	4419.00
844.72	4391.00
845.15	4409.00
845.59	4443.00
846.02	4438.00
846.45	4406.00
846.88	4387.00
847.32	4372.00
847.75	4363.00
848.18	4329.00
848.62	4358.00
849.05	4339.00
849.48	4255.00
849.91	4152.00
850.35	4202.00
850.78	4333.00
851.21	4344.00
851.64	4345.00
852.08	4367.00
852.51	4403.00
852.94	4309.00
853.37	4306.00
853.80	4152.00
854.24	3992.00
854.67	4071.00
855.10	4216.00
855.53	4280.00
855.97	4290.00
856.40	4312.00
856.83	4332.00
857.26	4343.00
857.69	4343.00
858.13	4344.00
858.56	4338.00
858.99	4365.00
859.42	4354.00
859.85	4322.00
860.28	4369.00
860.72	4368.00
861.15	4350.00
861.58	4329.00
862.01	4286.00
862.44	4313.00
862.87	4301.00
863.30	4269.00
863.74	4320.00
864.17	4324.00
864.60	4310.00
865.03	4274.00
865.46	4182.00
865.89	4074.00
866.32	4036.00
866.75	4133.00
867.19	4302.00
867.62	4292.00
868.05	4291.00
868.48	4281.00
868.91	4254.00
869.34	4261.00
869.77	4244.00
870.20	4262.00
870.63	4260.00
871.06	4235.00
871.49	4247.00
871.93	4267.00
872.36	4279.00
872.79	4258.00
873.22	4246.00
873.65	4246.00
874.08	4244.00
874.51	4220.00
874.94	4240.00
875.37	4242.00
875.80	4223.00
876.23	4220.00
876.66	4229.00
877.09	4202.00
877.52	4202.00
877.95	4155.00
878.38	4204.00
878.81	4166.00
879.24	4173.00
879.67	4157.00
880.10	4158.00
880.53	4179.00
880.96	4144.00
881.39	4177.00
881.82	4235.00
882.25	4185.00
882.68	4223.00
883.11	4281.00
883.54	4208.00
883.97	4228.00
884.40	4205.00
884.83	4237.00
885.26	4179.00
885.69	4123.00
886.12	4106.00
886.55	4153.00
886.98	4113.00
887.40	4123.00
887.83	4171.00
888.26	4160.00
888.69	4198.00
889.12	4169.00
889.55	4154.00
889.98	4213.00
890.41	4141.00
890.84	4158.00
891.27	4202.00
891.70	4124.00
892.12	4142.00
892.55	4070.00
892.98	4093.00
893.41	4076.00
893.84	4034.00
894.27	3978.00
894.70	3939.00
895.13	3893.00
895.55	3890.00
895.98	3824.00
896.41	3757.00
896.84	3810.00
897.27	3788.00
897.70	3835.00
898.13	3840.00
898.55	3579.00
898.98	3568.00
899.41	3781.00
899.84	3722.00
900.27	3661.00
900.70	3704.00
901.12	3681.00
901.55	3728.00
901.98	3707.00
902.41	3724.00
902.84	3793.00
903.26	3898.00
903.69	3927.00
904.12	3906.00
904.55	3885.00
904.97	3892.00
905.40	3913.00
905.83	3794.00
906.26	3763.00
906.69	3705.00
907.11	3673.00
907.54	3657.00
907.97	3651.00
908.40	3642.00
908.82	3683.00
909.25	3629.00
909.68	3621.00
910.10	3629.00
910.53	3634.00
910.96	3729.00
911.39	3630.00
911.81	3696.00
912.24	3690.00
912.67	3573.00
913.09	3493.00
913.52	3607.00
913.95	3686.00
914.38	3677.00
914.80	3558.00
915.23	3522.00
915.66	3620.00
916.08	3729.00
916.51	3678.00
916.94	3591.00
917.36	3583.00
917.79	3665.00
918.22	3697.00
918.64	3687.00
919.07	3683.00
919.50	3791.00
919.92	3774.00
920.35	3762.00
920.78	3721.00
921.20	3670.00
921.63	3702.00
922.05	3729.00
922.48	3713.00
922.91	3609.00
923.33	3613.00
923.76	3651.00
924.18	3643.00
924.61	3648.00
925.04	3636.00
925.46	3625.00
925.89	3606.00
926.31	3615.00
926.74	3572.00
927.17	3478.00
927.59	3415.00
928.02	3359.00
928.44	3359.00
928.87	3290.00
929.29	3283.00
929.72	3212.00
930.15	3168.00
930.57	3154.00
931.00	3076.00
931.42	2994.00
931.85	2975.00
932.27	2962.00
932.70	2963.00
933.12	2850.00
933.55	2835.00
933.97	2845.00
934.40	2935.00
934.82	2919.00
935.25	2844.00
935.67	2895.00
936.10	2864.00
936.52	2843.00
936.95	2856.00
937.37	2840.00
937.80	2873.00
938.22	2939.00
938.65	3027.00
939.07	3043.00
939.50	2996.00
939.92	2938.00
940.35	2933.00
940.77	2931.00
941.19	2933.00
941.62	2951.00
942.04	2885.00
942.47	2857.00
942.89	2929.00
943.32	2856.00
943.74	2814.00
944.16	2889.00
944.59	2913.00
945.01	2841.00
945.44	2817.00
945.86	2893.00
946.29	2905.00
946.71	2914.00
947.13	2902.00
947.56	2879.00
947.98	2960.00
948.40	2978.00
948.83	2917.00
949.25	2839.00
949.68	2900.00
950.10	3021.00
950.52	3038.00
950.95	2954.00
951.37	2899.00
951.79	2900.00
952.22	2941.00
952.64	2997.00
953.06	3018.00
953.49	2990.00
953.91	2957.00
954.33	2965.00
954.76	2937.00
955.18	2993.00
955.60	2985.00
956.03	2977.00
956.45	3066.00
956.87	3106.00
957.30	3039.00
957.72	3064.00
958.14	2978.00
958.56	2970.00
958.99	3027.00
959.41	3095.00
959.83	3085.00
960.26	3129.00
960.68	3151.00
961.10	3121.00
961.52	3072.00
961.95	3112.00
962.37	3203.00
962.79	3169.00
963.21	3137.00
963.64	3185.00
964.06	3169.00
964.48	3169.00
964.90	3205.00
965.32	3170.00
965.75	3178.00
966.17	3192.00
966.59	3277.00
967.01	3319.00
967.44	3311.00
967.86	3346.00
968.28	3332.00
968.70	3353.00
969.12	3354.00
969.54	3339.00
969.97	3387.00
970.39	3367.00
970.81	3357.00
971.23	3330.00
971.65	3320.00
972.07	3313.00
972.50	3304.00
972.92	3257.00
973.34	3269.00
973.76	3275.00
974.18	3288.00
974.60	3273.00
975.02	3235.00
975.45	3227.00
975.87	3322.00
976.29	3320.00
976.71	3320.00
977.13	3291.00
977.55	3299.00
977.97	3337.00
978.39	3300.00
978.81	3346.00
979.24	3307.00
979.66	3338.00
980.08	3357.00
980.50	3349.00
980.92	3351.00
981.34	3332.00
981.76	3341.00
982.18	3357.00
982.60	3351.00
983.02	3361.00
983.44	3366.00
983.86	3334.00
984.28	3372.00
984.70	3352.00
985.12	3383.00
985.54	3353.00
985.96	3326.00
986.38	3317.00
986.80	3317.00
987.23	3373.00
987.65	3352.00
988.07	3357.00
988.49	3336.00
988.91	3352.00
989.33	3335.00
989.74	3338.00
990.16	3330.00
990.58	3352.00
991.00	3324.00
991.42	3330.00
991.84	3329.00
992.26	3315.00
992.68	3293.00
993.10	3304.00
993.52	3307.00
993.94	3324.00
994.36	3295.00
994.78	3322.00
995.20	3313.00
995.62	3338.00
996.04	3301.00
996.46	3329.00
996.88	3315.00
997.30	3320.00
997.71	3335.00
998.13	3296.00
998.55	3336.00
998.97	3326.00
999.39	3335.00
999.81	3324.00
1000.23	3322.00
1000.65	3325.00
1001.07	3321.00
1001.49	3310.00
1001.90	3326.00
1002.32	3303.00
1002.74	3315.00
1003.16	3337.00
1003.58	3309.00
1004.00	3293.00
1004.42	3290.00
1004.83	3308.00
1005.25	3286.00
1005.67	3307.00
1006.09	3251.00
1006.51	3269.00
1006.92	3233.00
1007.34	3278.00
1007.76	3290.00
1008.18	3282.00
1008.60	3277.00
1009.02	3271.00
1009.43	3261.00
1009.85	3256.00
1010.27	3277.00
1010.69	3247.00
1011.10	3260.00
1011.52	3260.00
1011.94	3261.00
1012.36	3263.00
1012.78	3238.00
1013.19	3232.00
1013.61	3236.00
1014.03	3237.00
1014.45	3236.00
1014.86	3207.00
1015.28	3200.00
1015.70	3221.00
1016.12	3204.00
1016.53	3193.00
1016.95	3190.00
1017.37	3177.00
1017.78	3160.00
1018.20	3167.00
1018.62	3172.00
1019.03	3135.00
1019.45	3154.00
1019.87	3149.00
1020.29	3156.00
1020.70	3149.00
1021.12	3160.00
1021.54	3136.00
1021.95	3158.00
1022.37	3121.00
1022.79	3104.00
1023.20	3122.00
1023.62	3138.00
1024.04	3120.00
1024.45	3088.00
1024.87	3118.00
1025.28	3085.00
1025.70	3090.00
1026.12	3101.00
1026.53	3088.00
1026.95	3057.00
1027.37	3081.00
1027.78	3067.00
1028.20	3091.00
1028.61	3044.00
1029.03	3051.00
1029.45	3063.00
1029.86	3027.00
1030.28	3014.00
1030.69	3047.00
1031.11	3014.00
1031.53	3010.00
1031.94	3037.00
1032.36	2988.00
1032.77	3015.00
1033.19	3014.00
1033.60	2996.00
1034.02	2992.00
1034.43	3000.00
1034.85	2988.00
1035.27	2992.00
1035.68	2982.00
1036.10	2993.00
1036.51	2980.00
1036.93	2973.00
1037.34	2952.00
1037.76	2949.00
1038.17	2978.00
1038.59	2965.00
1039.00	2953.00
1039.42	2956.00
1039.83	2972.00
1040.25	2938.00
1040.66	2925.00
1041.08	2921.00
1041.49	2906.00
1041.91	2923.00
1042.32	2959.00
1042.73	2916.00
1043.15	2896.00
1043.56	2920.00
1043.98	2895.00
1044.39	2897.00
1044.81	2894.00
1045.22	2891.00
1045.64	2887.00
1046.05	2895.00
1046.46	2886.00
1046.88	2889.00
1047.29	2880.00
1047.71	2872.00
1048.12	2879.00
1048.53	2872.00
1048.95	2872.00
1049.36	2877.00
1049.78	2865.00
1050.19	2859.00
1050.60	2858.00
1051.02	2874.00
1051.43	2853.00
1051.85	2844.00
1052.26	2852.00
1052.67	2844.00
1053.09	2844.00
1053.50	2836.00
1053.91	2847.00
1054.33	2818.00
1054.74	2813.00
1055.15	2811.00
1055.57	2806.00
1055.98	2813.00
1056.39	2810.00
1056.81	2812.00
1057.22	2812.00
1057.63	2790.00
1058.05	2782.00
1058.46	2804.00
1058.87	2781.00
1059.28	2780.00
1059.70	2777.00
1060.11	2780.00
1060.52	2795.00
1060.94	2780.00
1061.35	2789.00
1061.76	2770.00
1062.17	2777.00
1062.59	2769.00
1063.00	2761.00
1063.41	2767.00
1063.82	2763.00
1064.24	2763.00
1064.65	2761.00
1065.06	2753.00
1065.47	2752.00
1065.89	2745.00
1066.30	2752.00
1066.71	2736.00
1067.12	2749.00
1067.53	2734.00
1067.95	2742.00
1068.36	2741.00
1068.77	2738.00
1069.18	2727.00
1069.59	2728.00
1070.00	2735.00
1070.42	2723.00
1070.83	2738.00
1071.24	2732.00
1071.65	2718.00
1072.06	2720.00
1072.47	2721.00
1072.89	2717.00
1073.30	2722.00
1073.71	2716.00
1074.12	2709.00
1074.53	2714.00
1074.94	2713.00
1075.35	2687.00
1075.77	2679.00
1076.18	2701.00
1076.59	2690.00
1077.00	2694.00
1077.41	2701.00
1077.82	2693.00
1078.23	2694.00
1078.64	2707.00
1079.05	2702.00
1079.46	2703.00
1079.87	2692.00
1080.29	2700.00
1080.70	2688.00
1081.11	2697.00
1081.52	2693.00
1081.93	2680.00
1082.34	2677.00
1082.75	2672.00
1083.16	2688.00
1083.57	2690.00
1083.98	2672.00
1084.39	2677.00
1084.80	2668.00
1085.21	2669.00
1085.62	2672.00
1086.03	2693.00
1086.44	2680.00
1086.85	2674.00
1087.26	2670.00
1087.67	2679.00
1088.08	2666.00
1088.49	2669.00
1088.90	2666.00
1089.31	2666.00
1089.72	2665.00
1090.13	2661.00
1090.54	2650.00
1090.95	2662.00
1091.36	2648.00
1091.77	2664.00
1092.18	2655.00
1092.59	2656.00
1093.00	2652.00
1093.40	2646.00
1093.81	2651.00
1094.22	2643.00
1094.63	2638.00
1095.04	2645.00
1095.45	2647.00
1095.86	2639.00
1096.27	2641.00
1096.68	2639.00
1097.09	2631.00
1097.50	2633.00
1097.90	2634.00
1098.31	2638.00
1098.72	2643.00
1099.13	2630.00
1099.54	2629.00
1099.95	2631.00
1100.36	2631.00
1100.76	2627.00
1101.17	2624.00
1101.58	2630.00
1101.99	2619.00
1102.40	2630.00
1102.81	2625.00
1103.22	2620.00
1103.62	2621.00
1104.03	2611.00
1104.44	2616.00
1104.85	2624.00
1105.26	2617.00
1105.66	2615.00
1106.07	2613.00
1106.48	2613.00
1106.89	2613.00
1107.30	2622.00
1107.70	2607.00
1108.11	2608.00
1108.52	2614.00
1108.93	2609.00
1109.33	2610.00
1109.74	2616.00
1110.15	2613.00
1110.56	2606.00
1110.96	2607.00
1111.37	2609.00
1111.78	2607.00
1112.19	2605.00
1112.59	2602.00
1113.00	2607.00
1113.41	2605.00
1113.81	2609.00
1114.22	2611.00
1114.63	2576.00
1115.03	2577.00
1115.44	2574.00
1115.85	2578.00
>>>>>End Processed Spectral Data<<<<<
