SpectraSuite Data File
++++++++++++++++++++++++++++++++++++
Date: Thu Aug 05 10:45:31 EEST 2021
User: CanSEE
Dark Spectrum Present: No
Reference Spectrum Present: No
Number of Sampled Component Spectra: 1
Spectrometers: MAYP112785
Integration Time (usec): 10000 (MAYP112785)
Spectra Averaged: 1 (MAYP112785)
Boxcar Smoothing: 0 (MAYP112785)
Correct for Electrical Dark: No (MAYP112785)
Strobe/Lamp Enabled: No (MAYP112785)
Correct for Detector Non-linearity: No (MAYP112785)
Correct for Stray Light: No (MAYP112785)
Number of Pixels in Processed Spectrum: 2068
>>>>>Begin Processed Spectral Data<<<<<
198.35	3485.00
198.82	2490.00
199.30	2589.00
199.77	2573.00
200.24	2604.00
200.71	2600.00
201.18	2611.00
201.65	2605.00
202.13	2610.00
202.60	2610.00
203.07	2618.00
203.54	2611.00
204.01	2609.00
204.48	2603.00
204.96	2603.00
205.43	2606.00
205.90	2606.00
206.37	2602.00
206.84	2608.00
207.31	2607.00
207.78	2602.00
208.26	2604.00
208.73	2608.00
209.20	2609.00
209.67	2613.00
210.14	2607.00
210.61	2609.00
211.08	2610.00
211.56	2610.00
212.03	2604.00
212.50	2606.00
212.97	2595.00
213.44	2605.00
213.91	2608.00
214.38	2604.00
214.85	2599.00
215.33	2606.00
215.80	2605.00
216.27	2602.00
216.74	2610.00
217.21	2607.00
217.68	2604.00
218.15	2601.00
218.62	2605.00
219.09	2608.00
219.57	2615.00
220.04	2601.00
220.51	2605.00
220.98	2615.00
221.45	2612.00
221.92	2599.00
222.39	2602.00
222.86	2611.00
223.33	2603.00
223.80	2607.00
224.27	2603.00
224.74	2610.00
225.22	2609.00
225.69	2607.00
226.16	2608.00
226.63	2606.00
227.10	2610.00
227.57	2604.00
228.04	2600.00
228.51	2613.00
228.98	2606.00
229.45	2609.00
229.92	2611.00
230.39	2601.00
230.86	2605.00
231.33	2605.00
231.80	2614.00
232.27	2612.00
232.75	2611.00
233.22	2606.00
233.69	2608.00
234.16	2608.00
234.63	2615.00
235.10	2603.00
235.57	2610.00
236.04	2607.00
236.51	2605.00
236.98	2598.00
237.45	2608.00
237.92	2607.00
238.39	2613.00
238.86	2609.00
239.33	2671.00
239.80	2609.00
240.27	2609.00
240.74	2610.00
241.21	2609.00
241.68	2600.00
242.15	2607.00
242.62	2608.00
243.09	2600.00
243.56	2611.00
244.03	2605.00
244.50	2609.00
244.97	2605.00
245.44	2620.00
245.91	2611.00
246.38	2599.00
246.85	2615.00
247.32	2609.00
247.79	2604.00
248.26	2613.00
248.73	2606.00
249.20	2611.00
249.67	2605.00
250.14	2605.00
250.61	2610.00
251.08	2610.00
251.55	2606.00
252.02	2603.00
252.49	2607.00
252.96	2607.00
253.43	2603.00
253.90	2605.00
254.37	2604.00
254.84	2603.00
255.31	2609.00
255.77	2613.00
256.24	2607.00
256.71	2603.00
257.18	2613.00
257.65	2611.00
258.12	2611.00
258.59	2612.00
259.06	2606.00
259.53	2610.00
260.00	2618.00
260.47	2603.00
260.94	2609.00
261.41	2606.00
261.88	2616.00
262.35	2610.00
262.81	2604.00
263.28	2612.00
263.75	2607.00
264.22	2612.00
264.69	2609.00
265.16	2603.00
265.63	2606.00
266.10	2610.00
266.57	2601.00
267.04	2606.00
267.51	2613.00
267.97	2599.00
268.44	2608.00
268.91	2606.00
269.38	2607.00
269.85	2612.00
270.32	2612.00
270.79	2617.00
271.26	2605.00
271.73	2602.00
272.19	2605.00
272.66	2606.00
273.13	2603.00
273.60	2606.00
274.07	2601.00
274.54	2608.00
275.01	2605.00
275.48	2603.00
275.94	2603.00
276.41	2609.00
276.88	2615.00
277.35	2605.00
277.82	2608.00
278.29	2614.00
278.76	2606.00
279.22	2611.00
279.69	2609.00
280.16	2610.00
280.63	2612.00
281.10	2607.00
281.57	2610.00
282.04	2607.00
282.50	2603.00
282.97	2603.00
283.44	2602.00
283.91	2605.00
284.38	2598.00
284.85	2610.00
285.31	2611.00
285.78	2611.00
286.25	2609.00
286.72	2605.00
287.19	2602.00
287.65	2607.00
288.12	2612.00
288.59	2610.00
289.06	2610.00
289.53	2613.00
289.99	2609.00
290.46	2613.00
290.93	2605.00
291.40	2600.00
291.87	2616.00
292.33	2607.00
292.80	2603.00
293.27	2608.00
293.74	2612.00
294.21	2609.00
294.67	2599.00
295.14	2607.00
295.61	2604.00
296.08	2607.00
296.54	2611.00
297.01	2608.00
297.48	2607.00
297.95	2604.00
298.42	2606.00
298.88	2597.00
299.35	2611.00
299.82	2619.00
300.29	2612.00
300.75	2602.00
301.22	2610.00
301.69	2606.00
302.16	2608.00
302.62	2607.00
303.09	2613.00
303.56	2614.00
304.03	2607.00
304.49	2621.00
304.96	2614.00
305.43	2616.00
305.90	2618.00
306.36	2608.00
306.83	2624.00
307.30	2618.00
307.76	2624.00
308.23	2625.00
308.70	2628.00
309.17	2624.00
309.63	2623.00
310.10	2637.00
310.57	2631.00
311.03	2640.00
311.50	2643.00
311.97	2652.00
312.44	2651.00
312.90	2652.00
313.37	2661.00
313.84	2668.00
314.30	2651.00
314.77	2677.00
315.24	2671.00
315.70	2676.00
316.17	2658.00
316.64	2676.00
317.10	2688.00
317.57	2685.00
318.04	2702.00
318.50	2688.00
318.97	2698.00
319.44	2708.00
319.90	2705.00
320.37	2717.00
320.84	2728.00
321.30	2718.00
321.77	2722.00
322.24	2729.00
322.70	2712.00
323.17	2713.00
323.64	2723.00
324.10	2746.00
324.57	2747.00
325.04	2771.00
325.50	2762.00
325.97	2785.00
326.44	2816.00
326.90	2797.00
327.37	2808.00
327.84	2795.00
328.30	2797.00
328.77	2804.00
329.23	2833.00
329.70	2843.00
330.17	2834.00
330.63	2835.00
331.10	2819.00
331.56	2823.00
332.03	2830.00
332.50	2845.00
332.96	2846.00
333.43	2835.00
333.90	2823.00
334.36	2836.00
334.83	2832.00
335.29	2842.00
335.76	2835.00
336.22	2830.00
336.69	2823.00
337.16	2821.00
337.62	2832.00
338.09	2825.00
338.55	2842.00
339.02	2867.00
339.49	2860.00
339.95	2887.00
340.42	2875.00
340.88	2879.00
341.35	2869.00
341.81	2867.00
342.28	2884.00
342.75	2885.00
343.21	2875.00
343.68	2886.00
344.14	2875.00
344.61	2843.00
345.07	2845.00
345.54	2907.00
346.00	2897.00
346.47	2882.00
346.93	2899.00
347.40	2902.00
347.87	2905.00
348.33	2920.00
348.80	2912.00
349.26	2922.00
349.73	2925.00
350.19	2925.00
350.66	2968.00
351.12	2948.00
351.59	2967.00
352.05	2952.00
352.52	2923.00
352.98	2911.00
353.45	2945.00
353.91	2972.00
354.38	2995.00
354.84	3002.00
355.31	2968.00
355.77	2964.00
356.24	2970.00
356.70	2948.00
357.17	2887.00
357.63	2910.00
358.10	2896.00
358.56	2891.00
359.03	2893.00
359.49	2946.00
359.96	2990.00
360.42	2977.00
360.89	2971.00
361.35	2960.00
361.82	2939.00
362.28	2968.00
362.75	3010.00
363.21	3008.00
363.67	2989.00
364.14	3005.00
364.60	3017.00
365.07	3038.00
365.53	3061.00
366.00	3112.00
366.46	3106.00
366.93	3084.00
367.39	3098.00
367.86	3060.00
368.32	3058.00
368.78	3097.00
369.25	3073.00
369.71	3093.00
370.18	3127.00
370.64	3110.00
371.11	3072.00
371.57	3098.00
372.03	3079.00
372.50	3017.00
372.96	3045.00
373.43	3007.00
373.89	3027.00
374.35	3017.00
374.82	3036.00
375.28	3033.00
375.75	3089.00
376.21	3132.00
376.67	3124.00
377.14	3136.00
377.60	3175.00
378.07	3227.00
378.53	3208.00
378.99	3208.00
379.46	3146.00
379.92	3139.00
380.39	3161.00
380.85	3190.00
381.31	3131.00
381.78	3117.00
382.24	3047.00
382.70	3028.00
383.17	3004.00
383.63	3014.00
384.09	3016.00
384.56	3101.00
385.02	3137.00
385.48	3155.00
385.95	3155.00
386.41	3133.00
386.88	3176.00
387.34	3158.00
387.80	3163.00
388.27	3178.00
388.73	3209.00
389.19	3230.00
389.66	3287.00
390.12	3346.00
390.58	3326.00
391.05	3315.00
391.51	3342.00
391.97	3292.00
392.43	3249.00
392.90	3166.00
393.36	3080.00
393.82	3081.00
394.29	3145.00
394.75	3270.00
395.21	3353.00
395.68	3314.00
396.14	3319.00
396.60	3246.00
397.07	3155.00
397.53	3232.00
397.99	3414.00
398.45	3601.00
398.92	3607.00
399.38	3653.00
399.84	3731.00
400.31	3709.00
400.77	3751.00
401.23	3762.00
401.69	3781.00
402.16	3788.00
402.62	3820.00
403.08	3759.00
403.54	3746.00
404.01	3773.00
404.47	3803.00
404.93	3793.00
405.39	3774.00
405.86	3793.00
406.32	3808.00
406.78	3738.00
407.24	3808.00
407.71	3864.00
408.17	3852.00
408.63	3837.00
409.09	3879.00
409.56	3864.00
410.02	3862.00
410.48	3820.00
410.94	3870.00
411.40	3928.00
411.87	3986.00
412.33	3990.00
412.79	3994.00
413.25	3895.00
413.71	3945.00
414.18	3981.00
414.64	4025.00
415.10	4008.00
415.56	4011.00
416.02	4013.00
416.49	4020.00
416.95	4016.00
417.41	3993.00
417.87	3961.00
418.33	4001.00
418.80	3993.00
419.26	4003.00
419.72	4049.00
420.18	3981.00
420.64	4034.00
421.10	4065.00
421.57	4072.00
422.03	4044.00
422.49	4048.00
422.95	4013.00
423.41	3971.00
423.87	4054.00
424.34	4080.00
424.80	4067.00
425.26	4069.00
425.72	4062.00
426.18	4081.00
426.64	4047.00
427.10	4081.00
427.57	4022.00
428.03	3990.00
428.49	4017.00
428.95	4004.00
429.41	3874.00
429.87	3899.00
430.33	3849.00
430.79	3814.00
431.26	3922.00
431.72	4021.00
432.18	4191.00
432.64	4236.00
433.10	4194.00
433.56	4207.00
434.02	4214.00
434.48	4136.00
434.94	4221.00
435.40	4308.00
435.87	4333.00
436.33	4352.00
436.79	4386.00
437.25	4314.00
437.71	4280.00
438.17	4247.00
438.63	4273.00
439.09	4271.00
439.55	4301.00
440.01	4335.00
440.47	4432.00
440.93	4410.00
441.39	4529.00
441.85	4509.00
442.32	4595.00
442.78	4560.00
443.24	4575.00
443.70	4563.00
444.16	4513.00
444.62	4522.00
445.08	4589.00
445.54	4591.00
446.00	4547.00
446.46	4579.00
446.92	4632.00
447.38	4736.00
447.84	4681.00
448.30	4736.00
448.76	4762.00
449.22	4765.00
449.68	4768.00
450.14	4802.00
450.60	4855.00
451.06	4960.00
451.52	4817.00
451.98	4792.00
452.44	4754.00
452.90	4771.00
453.36	4745.00
453.82	4728.00
454.28	4796.00
454.74	4781.00
455.20	4791.00
455.66	4863.00
456.12	4909.00
456.58	4937.00
457.04	4928.00
457.50	4901.00
457.96	4910.00
458.42	4873.00
458.88	4899.00
459.34	4896.00
459.80	4917.00
460.26	4979.00
460.72	4997.00
461.18	5016.00
461.64	5042.00
462.10	5038.00
462.55	5020.00
463.01	5065.00
463.47	4985.00
463.93	4997.00
464.39	4967.00
464.85	4973.00
465.31	4931.00
465.77	4956.00
466.23	5014.00
466.69	4967.00
467.15	4976.00
467.61	4998.00
468.07	5008.00
468.52	5016.00
468.98	5023.00
469.44	5014.00
469.90	4995.00
470.36	4996.00
470.82	5025.00
471.28	5030.00
471.74	5081.00
472.20	5111.00
472.66	5134.00
473.11	5106.00
473.57	5098.00
474.03	5145.00
474.49	5111.00
474.95	5101.00
475.41	5112.00
475.87	5103.00
476.33	5171.00
476.78	5153.00
477.24	5208.00
477.70	5195.00
478.16	5195.00
478.62	5262.00
479.08	5227.00
479.54	5215.00
479.99	5299.00
480.45	5295.00
480.91	5254.00
481.37	5260.00
481.83	5275.00
482.29	5308.00
482.74	5247.00
483.20	5273.00
483.66	5280.00
484.12	5280.00
484.58	5187.00
485.04	5105.00
485.49	5024.00
485.95	4972.00
486.41	4882.00
486.87	4959.00
487.33	5073.00
487.78	5114.00
488.24	5137.00
488.70	5202.00
489.16	5279.00
489.62	5255.00
490.07	5305.00
490.53	5368.00
490.99	5266.00
491.45	5241.00
491.90	5189.00
492.36	5207.00
492.82	5259.00
493.28	5256.00
493.74	5339.00
494.19	5350.00
494.65	5322.00
495.11	5398.00
495.57	5389.00
496.02	5296.00
496.48	5357.00
496.94	5382.00
497.40	5315.00
497.85	5359.00
498.31	5288.00
498.77	5344.00
499.23	5313.00
499.68	5295.00
500.14	5307.00
500.60	5278.00
501.06	5206.00
501.51	5201.00
501.97	5217.00
502.43	5275.00
502.88	5305.00
503.34	5293.00
503.80	5321.00
504.26	5251.00
504.71	5319.00
505.17	5340.00
505.63	5421.00
506.08	5411.00
506.54	5417.00
507.00	5424.00
507.45	5369.00
507.91	5347.00
508.37	5376.00
508.82	5375.00
509.28	5417.00
509.74	5468.00
510.19	5451.00
510.65	5443.00
511.11	5482.00
511.56	5488.00
512.02	5437.00
512.48	5499.00
512.93	5426.00
513.39	5403.00
513.85	5397.00
514.30	5414.00
514.76	5430.00
515.22	5435.00
515.67	5407.00
516.13	5259.00
516.59	5262.00
517.04	5137.00
517.50	5148.00
517.95	5144.00
518.41	5283.00
518.87	5264.00
519.32	5347.00
519.78	5483.00
520.24	5448.00
520.69	5506.00
521.15	5518.00
521.60	5467.00
522.06	5509.00
522.52	5539.00
522.97	5528.00
523.43	5510.00
523.88	5558.00
524.34	5601.00
524.80	5603.00
525.25	5635.00
525.71	5556.00
526.16	5465.00
526.62	5426.00
527.07	5422.00
527.53	5415.00
527.99	5466.00
528.44	5619.00
528.90	5624.00
529.35	5713.00
529.81	5750.00
530.26	5725.00
530.72	5688.00
531.17	5712.00
531.63	5696.00
532.09	5691.00
532.54	5568.00
533.00	5573.00
533.45	5595.00
533.91	5658.00
534.36	5627.00
534.82	5670.00
535.27	5728.00
535.73	5663.00
536.18	5690.00
536.64	5663.00
537.09	5734.00
537.55	5644.00
538.00	5727.00
538.46	5706.00
538.91	5718.00
539.37	5664.00
539.82	5608.00
540.28	5580.00
540.73	5581.00
541.19	5607.00
541.64	5624.00
542.10	5658.00
542.55	5711.00
543.01	5688.00
543.46	5656.00
543.92	5703.00
544.37	5678.00
544.83	5749.00
545.28	5694.00
545.74	5729.00
546.19	5746.00
546.64	5727.00
547.10	5709.00
547.55	5683.00
548.01	5694.00
548.46	5758.00
548.92	5746.00
549.37	5812.00
549.83	5812.00
550.28	5795.00
550.73	5775.00
551.19	5753.00
551.64	5837.00
552.10	5780.00
552.55	5759.00
553.00	5851.00
553.46	5773.00
553.91	5794.00
554.37	5863.00
554.82	5874.00
555.28	5761.00
555.73	5864.00
556.18	5821.00
556.64	5750.00
557.09	5754.00
557.54	5737.00
558.00	5741.00
558.45	5765.00
558.91	5670.00
559.36	5704.00
559.81	5650.00
560.27	5721.00
560.72	5784.00
561.17	5814.00
561.63	5770.00
562.08	5756.00
562.54	5811.00
562.99	5761.00
563.44	5776.00
563.90	5787.00
564.35	5787.00
564.80	5801.00
565.26	5778.00
565.71	5728.00
566.16	5720.00
566.62	5750.00
567.07	5723.00
567.52	5743.00
567.98	5758.00
568.43	5730.00
568.88	5732.00
569.34	5767.00
569.79	5782.00
570.24	5698.00
570.69	5703.00
571.15	5653.00
571.60	5740.00
572.05	5756.00
572.51	5802.00
572.96	5859.00
573.41	5824.00
573.86	5851.00
574.32	5838.00
574.77	5751.00
575.22	5791.00
575.68	5698.00
576.13	5735.00
576.58	5839.00
577.03	5748.00
577.49	5807.00
577.94	5749.00
578.39	5772.00
578.84	5747.00
579.30	5801.00
579.75	5776.00
580.20	5835.00
580.65	5844.00
581.11	5892.00
581.56	5889.00
582.01	5844.00
582.46	5873.00
582.92	5941.00
583.37	5930.00
583.82	5910.00
584.27	5929.00
584.72	5895.00
585.18	5906.00
585.63	5850.00
586.08	5872.00
586.53	5761.00
586.98	5869.00
587.44	5903.00
587.89	5795.00
588.34	5743.00
588.79	5634.00
589.24	5514.00
589.70	5546.00
590.15	5673.00
590.60	5696.00
591.05	5765.00
591.50	5759.00
591.96	5763.00
592.41	5828.00
592.86	5866.00
593.31	5760.00
593.76	5819.00
594.21	5794.00
594.66	5753.00
595.12	5708.00
595.57	5760.00
596.02	5744.00
596.47	5845.00
596.92	5832.00
597.37	5823.00
597.82	5792.00
598.28	5739.00
598.73	5821.00
599.18	5788.00
599.63	5784.00
600.08	5791.00
600.53	5775.00
600.98	5783.00
601.43	5807.00
601.88	5744.00
602.34	5729.00
602.79	5815.00
603.24	5840.00
603.69	5822.00
604.14	5914.00
604.59	5910.00
605.04	5906.00
605.49	5920.00
605.94	5914.00
606.39	5876.00
606.84	5900.00
607.30	5932.00
607.75	5902.00
608.20	5866.00
608.65	5814.00
609.10	5879.00
609.55	5855.00
610.00	5829.00
610.45	5835.00
610.90	5864.00
611.35	5902.00
611.80	5894.00
612.25	5875.00
612.70	5911.00
613.15	5848.00
613.60	5858.00
614.05	5856.00
614.50	5832.00
614.95	5888.00
615.40	5866.00
615.85	5791.00
616.30	5750.00
616.75	5737.00
617.20	5777.00
617.65	5781.00
618.10	5875.00
618.55	5847.00
619.00	5867.00
619.45	5910.00
619.90	5882.00
620.35	5859.00
620.80	5908.00
621.25	5902.00
621.70	5848.00
622.15	5832.00
622.60	5842.00
623.05	5811.00
623.50	5890.00
623.95	5823.00
624.40	5777.00
624.85	5797.00
625.30	5761.00
625.75	5759.00
626.20	5829.00
626.65	5797.00
627.10	5826.00
627.55	5752.00
627.99	5694.00
628.44	5749.00
628.89	5820.00
629.34	5783.00
629.79	5771.00
630.24	5735.00
630.69	5754.00
631.14	5766.00
631.59	5779.00
632.04	5767.00
632.49	5829.00
632.94	5846.00
633.38	5872.00
633.83	5808.00
634.28	5863.00
634.73	5836.00
635.18	5841.00
635.63	5847.00
636.08	5829.00
636.53	5902.00
636.97	5879.00
637.42	5991.00
637.87	5942.00
638.32	6022.00
638.77	5941.00
639.22	5965.00
639.67	5887.00
640.11	5830.00
640.56	5923.00
641.01	5965.00
641.46	5848.00
641.91	5875.00
642.36	5905.00
642.81	5943.00
643.25	5943.00
643.70	5921.00
644.15	5900.00
644.60	5954.00
645.05	5833.00
645.49	5892.00
645.94	5896.00
646.39	5817.00
646.84	5824.00
647.29	5803.00
647.73	5755.00
648.18	5810.00
648.63	5796.00
649.08	5840.00
649.53	5757.00
649.97	5783.00
650.42	5825.00
650.87	5881.00
651.32	5833.00
651.77	5803.00
652.21	5804.00
652.66	5897.00
653.11	5909.00
653.56	5846.00
654.00	5874.00
654.45	5838.00
654.90	5720.00
655.35	5713.00
655.79	5647.00
656.24	5398.00
656.69	5341.00
657.14	5518.00
657.58	5655.00
658.03	5762.00
658.48	5796.00
658.92	5857.00
659.37	5810.00
659.82	5832.00
660.27	5923.00
660.71	5932.00
661.16	5898.00
661.61	5861.00
662.05	5867.00
662.50	5904.00
662.95	5915.00
663.39	5908.00
663.84	5924.00
664.29	5883.00
664.74	5853.00
665.18	5855.00
665.63	5945.00
666.08	5932.00
666.52	5900.00
666.97	5861.00
667.42	5877.00
667.86	5946.00
668.31	5884.00
668.76	5831.00
669.20	5878.00
669.65	5873.00
670.09	5848.00
670.54	5934.00
670.99	5885.00
671.43	5876.00
671.88	5796.00
672.33	5775.00
672.77	5853.00
673.22	5864.00
673.66	5851.00
674.11	5848.00
674.56	5880.00
675.00	5818.00
675.45	5862.00
675.90	5825.00
676.34	5890.00
676.79	5901.00
677.23	5858.00
677.68	5815.00
678.12	5808.00
678.57	5864.00
679.02	5848.00
679.46	5836.00
679.91	5846.00
680.35	5832.00
680.80	5778.00
681.25	5812.00
681.69	5787.00
682.14	5795.00
682.58	5802.00
683.03	5837.00
683.47	5806.00
683.92	5789.00
684.36	5790.00
684.81	5748.00
685.25	5782.00
685.70	5780.00
686.15	5768.00
686.59	5409.00
687.04	5059.00
687.48	4902.00
687.93	4958.00
688.37	5183.00
688.82	5218.00
689.26	5219.00
689.71	5247.00
690.15	5257.00
690.60	5296.00
691.04	5413.00
691.49	5459.00
691.93	5487.00
692.38	5453.00
692.82	5515.00
693.27	5469.00
693.71	5520.00
694.16	5429.00
694.60	5511.00
695.04	5469.00
695.49	5479.00
695.93	5523.00
696.38	5613.00
696.82	5612.00
697.27	5641.00
697.71	5619.00
698.16	5583.00
698.60	5541.00
699.04	5553.00
699.49	5550.00
699.93	5453.00
700.38	5555.00
700.82	5472.00
701.27	5490.00
701.71	5479.00
702.15	5437.00
702.60	5448.00
703.04	5456.00
703.49	5538.00
703.93	5523.00
704.37	5491.00
704.82	5565.00
705.26	5544.00
705.71	5541.00
706.15	5515.00
706.59	5565.00
707.04	5560.00
707.48	5531.00
707.93	5543.00
708.37	5548.00
708.81	5537.00
709.26	5521.00
709.70	5631.00
710.14	5564.00
710.59	5584.00
711.03	5557.00
711.47	5578.00
711.92	5569.00
712.36	5592.00
712.80	5508.00
713.25	5472.00
713.69	5525.00
714.13	5559.00
714.58	5466.00
715.02	5463.00
715.46	5482.00
715.91	5424.00
716.35	5372.00
716.79	5162.00
717.24	5015.00
717.68	4876.00
718.12	4861.00
718.57	4794.00
719.01	4721.00
719.45	4708.00
719.89	4653.00
720.34	4724.00
720.78	4780.00
721.22	5006.00
721.66	5147.00
722.11	5171.00
722.55	5174.00
722.99	5137.00
723.44	4959.00
723.88	4858.00
724.32	4850.00
724.76	4890.00
725.21	4841.00
725.65	4832.00
726.09	4879.00
726.53	4861.00
726.97	4949.00
727.42	4940.00
727.86	4883.00
728.30	4890.00
728.74	4969.00
729.19	4835.00
729.63	4830.00
730.07	4901.00
730.51	4904.00
730.95	4978.00
731.40	4954.00
731.84	5000.00
732.28	5125.00
732.72	5188.00
733.16	5224.00
733.61	5112.00
734.05	5235.00
734.49	5235.00
734.93	5167.00
735.37	5252.00
735.81	5200.00
736.26	5177.00
736.70	5207.00
737.14	5222.00
737.58	5251.00
738.02	5238.00
738.46	5210.00
738.90	5165.00
739.35	5163.00
739.79	5209.00
740.23	5257.00
740.67	5159.00
741.11	5246.00
741.55	5173.00
741.99	5187.00
742.44	5202.00
742.88	5240.00
743.32	5212.00
743.76	5261.00
744.20	5280.00
744.64	5280.00
745.08	5231.00
745.52	5302.00
745.96	5343.00
746.40	5267.00
746.84	5301.00
747.29	5288.00
747.73	5283.00
748.17	5269.00
748.61	5276.00
749.05	5198.00
749.49	5235.00
749.93	5261.00
750.37	5279.00
750.81	5368.00
751.25	5225.00
751.69	5238.00
752.13	5281.00
752.57	5306.00
753.01	5242.00
753.45	5300.00
753.89	5280.00
754.33	5264.00
754.77	5299.00
755.21	5293.00
755.65	5288.00
756.09	5328.00
756.53	5252.00
756.97	5267.00
757.41	5270.00
757.85	5235.00
758.29	5230.00
758.73	5137.00
759.17	4904.00
759.61	4358.00
760.05	3645.00
760.49	3159.00
760.93	3081.00
761.37	3258.00
761.81	3736.00
762.25	3908.00
762.69	3757.00
763.13	3629.00
763.57	3613.00
764.01	3720.00
764.45	3867.00
764.89	4051.00
765.33	4191.00
765.77	4311.00
766.21	4488.00
766.65	4654.00
767.09	4830.00
767.53	4898.00
767.96	5013.00
768.40	5089.00
768.84	5029.00
769.28	5060.00
769.72	5115.00
770.16	5065.00
770.60	5123.00
771.04	5144.00
771.48	5146.00
771.92	5151.00
772.35	5160.00
772.79	5176.00
773.23	5169.00
773.67	5156.00
774.11	5147.00
774.55	5054.00
774.99	5067.00
775.43	5067.00
775.86	5117.00
776.30	5136.00
776.74	5118.00
777.18	5133.00
777.62	5087.00
778.06	5082.00
778.50	5090.00
778.93	5100.00
779.37	5035.00
779.81	5013.00
780.25	5027.00
780.69	5033.00
781.12	5037.00
781.56	5047.00
782.00	5068.00
782.44	5054.00
782.88	5027.00
783.32	4987.00
783.75	5015.00
784.19	5014.00
784.63	5080.00
785.07	5005.00
785.50	4984.00
785.94	5010.00
786.38	4962.00
786.82	4990.00
787.26	4954.00
787.69	4920.00
788.13	4947.00
788.57	4935.00
789.01	4952.00
789.44	4924.00
789.88	4880.00
790.32	4873.00
790.76	4845.00
791.19	4866.00
791.63	4854.00
792.07	4764.00
792.51	4782.00
792.94	4790.00
793.38	4798.00
793.82	4796.00
794.25	4812.00
794.69	4799.00
795.13	4828.00
795.56	4893.00
796.00	4708.00
796.44	4749.00
796.88	4687.00
797.31	4734.00
797.75	4754.00
798.19	4822.00
798.62	4807.00
799.06	4827.00
799.50	4768.00
799.93	4809.00
800.37	4731.00
800.81	4773.00
801.24	4753.00
801.68	4782.00
802.12	4725.00
802.55	4680.00
802.99	4691.00
803.43	4733.00
803.86	4640.00
804.30	4674.00
804.73	4670.00
805.17	4671.00
805.61	4704.00
806.04	4731.00
806.48	4768.00
806.92	4765.00
807.35	4709.00
807.79	4701.00
808.22	4673.00
808.66	4658.00
809.10	4615.00
809.53	4660.00
809.97	4575.00
810.40	4610.00
810.84	4587.00
811.27	4534.00
811.71	4514.00
812.15	4497.00
812.58	4508.00
813.02	4452.00
813.45	4330.00
813.89	4325.00
814.32	4290.00
814.76	4213.00
815.19	4180.00
815.63	4109.00
816.07	4137.00
816.50	4070.00
816.94	4086.00
817.37	4183.00
817.81	4110.00
818.24	4101.00
818.68	4184.00
819.11	4217.00
819.55	4201.00
819.98	4185.00
820.42	4313.00
820.85	4379.00
821.29	4362.00
821.72	4329.00
822.16	4198.00
822.59	4086.00
823.03	3880.00
823.46	3989.00
823.90	4170.00
824.33	4262.00
824.77	4365.00
825.20	4395.00
825.63	4347.00
826.07	4265.00
826.50	4338.00
826.94	4371.00
827.37	4224.00
827.81	4161.00
828.24	4149.00
828.68	4170.00
829.11	4195.00
829.54	4201.00
829.98	4240.00
830.41	4228.00
830.85	4249.00
831.28	4276.00
831.71	4264.00
832.15	4274.00
832.58	4289.00
833.02	4276.00
833.45	4250.00
833.88	4277.00
834.32	4283.00
834.75	4363.00
835.19	4311.00
835.62	4329.00
836.05	4347.00
836.49	4329.00
836.92	4346.00
837.35	4341.00
837.79	4383.00
838.22	4427.00
838.66	4404.00
839.09	4429.00
839.52	4428.00
839.96	4434.00
840.39	4383.00
840.82	4329.00
841.26	4348.00
841.69	4352.00
842.12	4345.00
842.56	4403.00
842.99	4355.00
843.42	4359.00
843.85	4299.00
844.29	4393.00
844.72	4357.00
845.15	4415.00
845.59	4446.00
846.02	4430.00
846.45	4443.00
846.88	4390.00
847.32	4418.00
847.75	4389.00
848.18	4378.00
848.62	4347.00
849.05	4345.00
849.48	4277.00
849.91	4144.00
850.35	4239.00
850.78	4334.00
851.21	4334.00
851.64	4309.00
852.08	4347.00
852.51	4339.00
852.94	4333.00
853.37	4322.00
853.80	4152.00
854.24	3976.00
854.67	4085.00
855.10	4199.00
855.53	4311.00
855.97	4260.00
856.40	4301.00
856.83	4346.00
857.26	4349.00
857.69	4330.00
858.13	4301.00
858.56	4332.00
858.99	4361.00
859.42	4282.00
859.85	4368.00
860.28	4360.00
860.72	4354.00
861.15	4335.00
861.58	4341.00
862.01	4312.00
862.44	4318.00
862.87	4302.00
863.30	4312.00
863.74	4257.00
864.17	4346.00
864.60	4284.00
865.03	4260.00
865.46	4240.00
865.89	4129.00
866.32	4029.00
866.75	4171.00
867.19	4252.00
867.62	4298.00
868.05	4267.00
868.48	4285.00
868.91	4284.00
869.34	4216.00
869.77	4214.00
870.20	4228.00
870.63	4302.00
871.06	4207.00
871.49	4250.00
871.93	4249.00
872.36	4264.00
872.79	4211.00
873.22	4242.00
873.65	4224.00
874.08	4196.00
874.51	4263.00
874.94	4223.00
875.37	4238.00
875.80	4241.00
876.23	4210.00
876.66	4229.00
877.09	4181.00
877.52	4168.00
877.95	4196.00
878.38	4180.00
878.81	4203.00
879.24	4168.00
879.67	4157.00
880.10	4185.00
880.53	4165.00
880.96	4170.00
881.39	4215.00
881.82	4216.00
882.25	4197.00
882.68	4222.00
883.11	4214.00
883.54	4240.00
883.97	4259.00
884.40	4238.00
884.83	4197.00
885.26	4181.00
885.69	4106.00
886.12	4133.00
886.55	4132.00
886.98	4148.00
887.40	4177.00
887.83	4153.00
888.26	4166.00
888.69	4209.00
889.12	4179.00
889.55	4177.00
889.98	4165.00
890.41	4195.00
890.84	4148.00
891.27	4161.00
891.70	4126.00
892.12	4161.00
892.55	4069.00
892.98	4084.00
893.41	4041.00
893.84	4059.00
894.27	3990.00
894.70	3942.00
895.13	3883.00
895.55	3896.00
895.98	3830.00
896.41	3807.00
896.84	3747.00
897.27	3794.00
897.70	3801.00
898.13	3777.00
898.55	3588.00
898.98	3594.00
899.41	3785.00
899.84	3709.00
900.27	3688.00
900.70	3690.00
901.12	3693.00
901.55	3687.00
901.98	3717.00
902.41	3757.00
902.84	3797.00
903.26	3928.00
903.69	3872.00
904.12	3898.00
904.55	3883.00
904.97	3895.00
905.40	3914.00
905.83	3832.00
906.26	3775.00
906.69	3671.00
907.11	3699.00
907.54	3684.00
907.97	3715.00
908.40	3655.00
908.82	3634.00
909.25	3667.00
909.68	3629.00
910.10	3660.00
910.53	3643.00
910.96	3717.00
911.39	3668.00
911.81	3689.00
912.24	3679.00
912.67	3555.00
913.09	3503.00
913.52	3592.00
913.95	3661.00
914.38	3679.00
914.80	3584.00
915.23	3548.00
915.66	3628.00
916.08	3721.00
916.51	3706.00
916.94	3586.00
917.36	3553.00
917.79	3660.00
918.22	3693.00
918.64	3753.00
919.07	3740.00
919.50	3750.00
919.92	3751.00
920.35	3760.00
920.78	3722.00
921.20	3676.00
921.63	3691.00
922.05	3711.00
922.48	3656.00
922.91	3670.00
923.33	3640.00
923.76	3599.00
924.18	3612.00
924.61	3667.00
925.04	3651.00
925.46	3615.00
925.89	3613.00
926.31	3670.00
926.74	3605.00
927.17	3489.00
927.59	3385.00
928.02	3341.00
928.44	3348.00
928.87	3330.00
929.29	3263.00
929.72	3226.00
930.15	3196.00
930.57	3140.00
931.00	3064.00
931.42	3013.00
931.85	2958.00
932.27	2974.00
932.70	2940.00
933.12	2873.00
933.55	2828.00
933.97	2863.00
934.40	2950.00
934.82	2934.00
935.25	2879.00
935.67	2891.00
936.10	2858.00
936.52	2845.00
936.95	2862.00
937.37	2850.00
937.80	2867.00
938.22	2963.00
938.65	3022.00
939.07	3053.00
939.50	2983.00
939.92	2941.00
940.35	2943.00
940.77	2938.00
941.19	2939.00
941.62	2940.00
942.04	2859.00
942.47	2873.00
942.89	2901.00
943.32	2845.00
943.74	2811.00
944.16	2882.00
944.59	2905.00
945.01	2850.00
945.44	2856.00
945.86	2877.00
946.29	2896.00
946.71	2913.00
947.13	2908.00
947.56	2871.00
947.98	2938.00
948.40	2976.00
948.83	2894.00
949.25	2841.00
949.68	2880.00
950.10	2991.00
950.52	3029.00
950.95	2972.00
951.37	2898.00
951.79	2915.00
952.22	2932.00
952.64	2999.00
953.06	3001.00
953.49	2988.00
953.91	2977.00
954.33	2997.00
954.76	2972.00
955.18	3004.00
955.60	2999.00
956.03	2960.00
956.45	3052.00
956.87	3096.00
957.30	3062.00
957.72	3056.00
958.14	3003.00
958.56	2972.00
958.99	3018.00
959.41	3092.00
959.83	3078.00
960.26	3128.00
960.68	3153.00
961.10	3126.00
961.52	3083.00
961.95	3108.00
962.37	3177.00
962.79	3160.00
963.21	3137.00
963.64	3120.00
964.06	3193.00
964.48	3188.00
964.90	3187.00
965.32	3136.00
965.75	3149.00
966.17	3221.00
966.59	3293.00
967.01	3319.00
967.44	3293.00
967.86	3348.00
968.28	3366.00
968.70	3346.00
969.12	3348.00
969.54	3370.00
969.97	3366.00
970.39	3387.00
970.81	3367.00
971.23	3368.00
971.65	3298.00
972.07	3309.00
972.50	3277.00
972.92	3266.00
973.34	3286.00
973.76	3306.00
974.18	3280.00
974.60	3267.00
975.02	3281.00
975.45	3251.00
975.87	3297.00
976.29	3340.00
976.71	3324.00
977.13	3301.00
977.55	3284.00
977.97	3308.00
978.39	3257.00
978.81	3318.00
979.24	3341.00
979.66	3360.00
980.08	3367.00
980.50	3343.00
980.92	3354.00
981.34	3356.00
981.76	3347.00
982.18	3364.00
982.60	3355.00
983.02	3342.00
983.44	3334.00
983.86	3317.00
984.28	3356.00
984.70	3341.00
985.12	3339.00
985.54	3353.00
985.96	3329.00
986.38	3330.00
986.80	3337.00
987.23	3350.00
987.65	3363.00
988.07	3350.00
988.49	3341.00
988.91	3350.00
989.33	3341.00
989.74	3346.00
990.16	3326.00
990.58	3335.00
991.00	3341.00
991.42	3324.00
991.84	3349.00
992.26	3347.00
992.68	3313.00
993.10	3346.00
993.52	3305.00
993.94	3335.00
994.36	3314.00
994.78	3287.00
995.20	3316.00
995.62	3343.00
996.04	3284.00
996.46	3334.00
996.88	3316.00
997.30	3338.00
997.71	3329.00
998.13	3336.00
998.55	3331.00
998.97	3329.00
999.39	3333.00
999.81	3326.00
1000.23	3325.00
1000.65	3338.00
1001.07	3318.00
1001.49	3307.00
1001.90	3323.00
1002.32	3346.00
1002.74	3307.00
1003.16	3337.00
1003.58	3316.00
1004.00	3297.00
1004.42	3286.00
1004.83	3273.00
1005.25	3297.00
1005.67	3282.00
1006.09	3298.00
1006.51	3259.00
1006.92	3293.00
1007.34	3306.00
1007.76	3292.00
1008.18	3277.00
1008.60	3290.00
1009.02	3289.00
1009.43	3280.00
1009.85	3277.00
1010.27	3255.00
1010.69	3258.00
1011.10	3275.00
1011.52	3237.00
1011.94	3247.00
1012.36	3251.00
1012.78	3229.00
1013.19	3229.00
1013.61	3236.00
1014.03	3229.00
1014.45	3231.00
1014.86	3198.00
1015.28	3205.00
1015.70	3221.00
1016.12	3201.00
1016.53	3206.00
1016.95	3181.00
1017.37	3176.00
1017.78	3156.00
1018.20	3162.00
1018.62	3149.00
1019.03	3154.00
1019.45	3160.00
1019.87	3143.00
1020.29	3118.00
1020.70	3142.00
1021.12	3141.00
1021.54	3141.00
1021.95	3131.00
1022.37	3149.00
1022.79	3169.00
1023.20	3109.00
1023.62	3124.00
1024.04	3121.00
1024.45	3105.00
1024.87	3134.00
1025.28	3125.00
1025.70	3083.00
1026.12	3103.00
1026.53	3115.00
1026.95	3073.00
1027.37	3066.00
1027.78	3073.00
1028.20	3079.00
1028.61	3086.00
1029.03	3056.00
1029.45	3071.00
1029.86	3054.00
1030.28	3035.00
1030.69	3040.00
1031.11	3032.00
1031.53	3007.00
1031.94	3024.00
1032.36	2997.00
1032.77	3001.00
1033.19	2995.00
1033.60	3024.00
1034.02	2996.00
1034.43	2993.00
1034.85	3000.00
1035.27	2989.00
1035.68	2967.00
1036.10	2998.00
1036.51	2983.00
1036.93	2987.00
1037.34	2969.00
1037.76	2982.00
1038.17	2967.00
1038.59	2960.00
1039.00	2930.00
1039.42	2947.00
1039.83	2961.00
1040.25	2930.00
1040.66	2956.00
1041.08	2953.00
1041.49	2934.00
1041.91	2925.00
1042.32	2929.00
1042.73	2922.00
1043.15	2896.00
1043.56	2917.00
1043.98	2908.00
1044.39	2910.00
1044.81	2887.00
1045.22	2899.00
1045.64	2896.00
1046.05	2901.00
1046.46	2886.00
1046.88	2882.00
1047.29	2871.00
1047.71	2870.00
1048.12	2867.00
1048.53	2866.00
1048.95	2869.00
1049.36	2862.00
1049.78	2874.00
1050.19	2862.00
1050.60	2846.00
1051.02	2857.00
1051.43	2838.00
1051.85	2859.00
1052.26	2837.00
1052.67	2849.00
1053.09	2837.00
1053.50	2829.00
1053.91	2829.00
1054.33	2814.00
1054.74	2830.00
1055.15	2826.00
1055.57	2803.00
1055.98	2816.00
1056.39	2801.00
1056.81	2809.00
1057.22	2826.00
1057.63	2794.00
1058.05	2799.00
1058.46	2793.00
1058.87	2795.00
1059.28	2812.00
1059.70	2781.00
1060.11	2784.00
1060.52	2788.00
1060.94	2788.00
1061.35	2773.00
1061.76	2770.00
1062.17	2775.00
1062.59	2773.00
1063.00	2765.00
1063.41	2766.00
1063.82	2764.00
1064.24	2766.00
1064.65	2767.00
1065.06	2749.00
1065.47	2766.00
1065.89	2743.00
1066.30	2739.00
1066.71	2754.00
1067.12	2742.00
1067.53	2730.00
1067.95	2747.00
1068.36	2731.00
1068.77	2726.00
1069.18	2726.00
1069.59	2726.00
1070.00	2722.00
1070.42	2728.00
1070.83	2711.00
1071.24	2726.00
1071.65	2729.00
1072.06	2717.00
1072.47	2728.00
1072.89	2722.00
1073.30	2711.00
1073.71	2712.00
1074.12	2705.00
1074.53	2711.00
1074.94	2716.00
1075.35	2702.00
1075.77	2716.00
1076.18	2711.00
1076.59	2695.00
1077.00	2697.00
1077.41	2690.00
1077.82	2690.00
1078.23	2702.00
1078.64	2706.00
1079.05	2703.00
1079.46	2699.00
1079.87	2701.00
1080.29	2697.00
1080.70	2682.00
1081.11	2681.00
1081.52	2675.00
1081.93	2689.00
1082.34	2683.00
1082.75	2674.00
1083.16	2692.00
1083.57	2680.00
1083.98	2678.00
1084.39	2674.00
1084.80	2671.00
1085.21	2663.00
1085.62	2669.00
1086.03	2691.00
1086.44	2668.00
1086.85	2661.00
1087.26	2666.00
1087.67	2659.00
1088.08	2669.00
1088.49	2663.00
1088.90	2667.00
1089.31	2666.00
1089.72	2660.00
1090.13	2667.00
1090.54	2670.00
1090.95	2659.00
1091.36	2644.00
1091.77	2659.00
1092.18	2652.00
1092.59	2655.00
1093.00	2647.00
1093.40	2653.00
1093.81	2652.00
1094.22	2634.00
1094.63	2635.00
1095.04	2642.00
1095.45	2631.00
1095.86	2638.00
1096.27	2637.00
1096.68	2633.00
1097.09	2631.00
1097.50	2638.00
1097.90	2627.00
1098.31	2647.00
1098.72	2647.00
1099.13	2635.00
1099.54	2621.00
1099.95	2625.00
1100.36	2618.00
1100.76	2636.00
1101.17	2626.00
1101.58	2631.00
1101.99	2618.00
1102.40	2630.00
1102.81	2623.00
1103.22	2615.00
1103.62	2617.00
1104.03	2609.00
1104.44	2612.00
1104.85	2621.00
1105.26	2613.00
1105.66	2613.00
1106.07	2607.00
1106.48	2610.00
1106.89	2607.00
1107.30	2612.00
1107.70	2617.00
1108.11	2611.00
1108.52	2611.00
1108.93	2607.00
1109.33	2614.00
1109.74	2606.00
1110.15	2619.00
1110.56	2603.00
1110.96	2614.00
1111.37	2617.00
1111.78	2609.00
1112.19	2605.00
1112.59	2611.00
1113.00	2610.00
1113.41	2598.00
1113.81	2602.00
1114.22	2606.00
1114.63	2572.00
1115.03	2574.00
1115.44	2574.00
1115.85	2575.00
>>>>>End Processed Spectral Data<<<<<
