SpectraSuite Data File
++++++++++++++++++++++++++++++++++++
Date: Thu Aug 05 09:52:34 EEST 2021
User: CanSEE
Dark Spectrum Present: No
Reference Spectrum Present: No
Number of Sampled Component Spectra: 1
Spectrometers: MAYP112785
Integration Time (usec): 10000 (MAYP112785)
Spectra Averaged: 1 (MAYP112785)
Boxcar Smoothing: 0 (MAYP112785)
Correct for Electrical Dark: No (MAYP112785)
Strobe/Lamp Enabled: No (MAYP112785)
Correct for Detector Non-linearity: No (MAYP112785)
Correct for Stray Light: No (MAYP112785)
Number of Pixels in Processed Spectrum: 2068
>>>>>Begin Processed Spectral Data<<<<<
198.35	3434.00
198.82	2466.00
199.30	2577.00
199.77	2558.00
200.24	2575.00
200.71	2573.00
201.18	2579.00
201.65	2588.00
202.13	2581.00
202.60	2585.00
203.07	2584.00
203.54	2590.00
204.01	2577.00
204.48	2581.00
204.96	2576.00
205.43	2577.00
205.90	2579.00
206.37	2581.00
206.84	2583.00
207.31	2576.00
207.78	2576.00
208.26	2573.00
208.73	2589.00
209.20	2586.00
209.67	2578.00
210.14	2590.00
210.61	2581.00
211.08	2582.00
211.56	2587.00
212.03	2586.00
212.50	2583.00
212.97	2578.00
213.44	2583.00
213.91	2575.00
214.38	2578.00
214.85	2581.00
215.33	2577.00
215.80	2583.00
216.27	2582.00
216.74	2573.00
217.21	2580.00
217.68	2587.00
218.15	2578.00
218.62	2582.00
219.09	2576.00
219.57	2581.00
220.04	2571.00
220.51	2583.00
220.98	2584.00
221.45	2579.00
221.92	2579.00
222.39	2578.00
222.86	2582.00
223.33	2575.00
223.80	2583.00
224.27	2580.00
224.74	2586.00
225.22	2579.00
225.69	2583.00
226.16	2586.00
226.63	2585.00
227.10	2583.00
227.57	2584.00
228.04	2578.00
228.51	2581.00
228.98	2583.00
229.45	2581.00
229.92	2581.00
230.39	2581.00
230.86	2583.00
231.33	2584.00
231.80	2585.00
232.27	2577.00
232.75	2580.00
233.22	2582.00
233.69	2581.00
234.16	2586.00
234.63	2583.00
235.10	2581.00
235.57	2580.00
236.04	2589.00
236.51	2586.00
236.98	2583.00
237.45	2588.00
237.92	2586.00
238.39	2578.00
238.86	2582.00
239.33	2623.00
239.80	2583.00
240.27	2580.00
240.74	2578.00
241.21	2580.00
241.68	2579.00
242.15	2577.00
242.62	2584.00
243.09	2585.00
243.56	2579.00
244.03	2579.00
244.50	2581.00
244.97	2573.00
245.44	2592.00
245.91	2577.00
246.38	2575.00
246.85	2578.00
247.32	2580.00
247.79	2581.00
248.26	2585.00
248.73	2578.00
249.20	2583.00
249.67	2579.00
250.14	2584.00
250.61	2574.00
251.08	2586.00
251.55	2577.00
252.02	2577.00
252.49	2579.00
252.96	2584.00
253.43	2582.00
253.90	2578.00
254.37	2581.00
254.84	2587.00
255.31	2580.00
255.77	2583.00
256.24	2581.00
256.71	2577.00
257.18	2587.00
257.65	2578.00
258.12	2586.00
258.59	2588.00
259.06	2581.00
259.53	2586.00
260.00	2583.00
260.47	2581.00
260.94	2589.00
261.41	2578.00
261.88	2583.00
262.35	2580.00
262.81	2582.00
263.28	2589.00
263.75	2583.00
264.22	2582.00
264.69	2581.00
265.16	2583.00
265.63	2583.00
266.10	2570.00
266.57	2585.00
267.04	2583.00
267.51	2587.00
267.97	2584.00
268.44	2587.00
268.91	2582.00
269.38	2583.00
269.85	2582.00
270.32	2586.00
270.79	2584.00
271.26	2583.00
271.73	2581.00
272.19	2588.00
272.66	2586.00
273.13	2579.00
273.60	2588.00
274.07	2580.00
274.54	2590.00
275.01	2587.00
275.48	2583.00
275.94	2579.00
276.41	2583.00
276.88	2584.00
277.35	2578.00
277.82	2581.00
278.29	2584.00
278.76	2587.00
279.22	2578.00
279.69	2588.00
280.16	2588.00
280.63	2579.00
281.10	2583.00
281.57	2585.00
282.04	2585.00
282.50	2582.00
282.97	2585.00
283.44	2586.00
283.91	2579.00
284.38	2581.00
284.85	2579.00
285.31	2583.00
285.78	2593.00
286.25	2580.00
286.72	2581.00
287.19	2587.00
287.65	2575.00
288.12	2586.00
288.59	2578.00
289.06	2581.00
289.53	2579.00
289.99	2585.00
290.46	2584.00
290.93	2586.00
291.40	2585.00
291.87	2579.00
292.33	2582.00
292.80	2583.00
293.27	2578.00
293.74	2581.00
294.21	2589.00
294.67	2579.00
295.14	2577.00
295.61	2582.00
296.08	2586.00
296.54	2581.00
297.01	2574.00
297.48	2582.00
297.95	2575.00
298.42	2583.00
298.88	2573.00
299.35	2583.00
299.82	2582.00
300.29	2580.00
300.75	2583.00
301.22	2590.00
301.69	2576.00
302.16	2582.00
302.62	2573.00
303.09	2579.00
303.56	2584.00
304.03	2586.00
304.49	2582.00
304.96	2587.00
305.43	2584.00
305.90	2581.00
306.36	2588.00
306.83	2587.00
307.30	2588.00
307.76	2597.00
308.23	2602.00
308.70	2594.00
309.17	2593.00
309.63	2590.00
310.10	2595.00
310.57	2599.00
311.03	2601.00
311.50	2599.00
311.97	2614.00
312.44	2614.00
312.90	2609.00
313.37	2620.00
313.84	2625.00
314.30	2634.00
314.77	2619.00
315.24	2632.00
315.70	2624.00
316.17	2624.00
316.64	2635.00
317.10	2649.00
317.57	2645.00
318.04	2651.00
318.50	2658.00
318.97	2663.00
319.44	2676.00
319.90	2667.00
320.37	2664.00
320.84	2686.00
321.30	2661.00
321.77	2665.00
322.24	2677.00
322.70	2675.00
323.17	2688.00
323.64	2692.00
324.10	2697.00
324.57	2689.00
325.04	2699.00
325.50	2711.00
325.97	2732.00
326.44	2773.00
326.90	2753.00
327.37	2756.00
327.84	2765.00
328.30	2744.00
328.77	2747.00
329.23	2770.00
329.70	2780.00
330.17	2781.00
330.63	2775.00
331.10	2774.00
331.56	2758.00
332.03	2774.00
332.50	2783.00
332.96	2772.00
333.43	2769.00
333.90	2771.00
334.36	2765.00
334.83	2769.00
335.29	2767.00
335.76	2785.00
336.22	2764.00
336.69	2771.00
337.16	2751.00
337.62	2771.00
338.09	2776.00
338.55	2783.00
339.02	2804.00
339.49	2811.00
339.95	2804.00
340.42	2805.00
340.88	2810.00
341.35	2809.00
341.81	2820.00
342.28	2829.00
342.75	2821.00
343.21	2837.00
343.68	2820.00
344.14	2819.00
344.61	2781.00
345.07	2805.00
345.54	2825.00
346.00	2823.00
346.47	2832.00
346.93	2845.00
347.40	2833.00
347.87	2835.00
348.33	2840.00
348.80	2850.00
349.26	2869.00
349.73	2849.00
350.19	2857.00
350.66	2870.00
351.12	2891.00
351.59	2866.00
352.05	2870.00
352.52	2868.00
352.98	2862.00
353.45	2895.00
353.91	2913.00
354.38	2906.00
354.84	2922.00
355.31	2899.00
355.77	2905.00
356.24	2874.00
356.70	2870.00
357.17	2832.00
357.63	2850.00
358.10	2861.00
358.56	2823.00
359.03	2810.00
359.49	2885.00
359.96	2901.00
360.42	2921.00
360.89	2876.00
361.35	2875.00
361.82	2880.00
362.28	2895.00
362.75	2935.00
363.21	2935.00
363.67	2915.00
364.14	2909.00
364.60	2948.00
365.07	2939.00
365.53	2954.00
366.00	2970.00
366.46	3024.00
366.93	2990.00
367.39	2973.00
367.86	2988.00
368.32	2977.00
368.78	2962.00
369.25	2993.00
369.71	3023.00
370.18	3004.00
370.64	2988.00
371.11	2987.00
371.57	2998.00
372.03	2981.00
372.50	2958.00
372.96	2950.00
373.43	2958.00
373.89	2916.00
374.35	2967.00
374.82	2933.00
375.28	2940.00
375.75	3003.00
376.21	3027.00
376.67	3024.00
377.14	3056.00
377.60	3064.00
378.07	3105.00
378.53	3094.00
378.99	3102.00
379.46	3050.00
379.92	3024.00
380.39	3038.00
380.85	3056.00
381.31	3040.00
381.78	2990.00
382.24	2954.00
382.70	2933.00
383.17	2923.00
383.63	2925.00
384.09	2914.00
384.56	2988.00
385.02	3033.00
385.48	3028.00
385.95	3053.00
386.41	3017.00
386.88	3055.00
387.34	3032.00
387.80	3057.00
388.27	3080.00
388.73	3105.00
389.19	3103.00
389.66	3160.00
390.12	3223.00
390.58	3179.00
391.05	3192.00
391.51	3194.00
391.97	3143.00
392.43	3119.00
392.90	3034.00
393.36	2977.00
393.82	2964.00
394.29	3050.00
394.75	3137.00
395.21	3178.00
395.68	3188.00
396.14	3166.00
396.60	3108.00
397.07	3046.00
397.53	3120.00
397.99	3263.00
398.45	3385.00
398.92	3447.00
399.38	3451.00
399.84	3510.00
400.31	3484.00
400.77	3536.00
401.23	3513.00
401.69	3567.00
402.16	3579.00
402.62	3560.00
403.08	3559.00
403.54	3564.00
404.01	3557.00
404.47	3583.00
404.93	3539.00
405.39	3553.00
405.86	3549.00
406.32	3531.00
406.78	3558.00
407.24	3589.00
407.71	3605.00
408.17	3583.00
408.63	3632.00
409.09	3659.00
409.56	3616.00
410.02	3602.00
410.48	3595.00
410.94	3624.00
411.40	3685.00
411.87	3730.00
412.33	3736.00
412.79	3741.00
413.25	3723.00
413.71	3705.00
414.18	3742.00
414.64	3755.00
415.10	3735.00
415.56	3769.00
416.02	3780.00
416.49	3749.00
416.95	3738.00
417.41	3729.00
417.87	3753.00
418.33	3729.00
418.80	3741.00
419.26	3784.00
419.72	3764.00
420.18	3769.00
420.64	3756.00
421.10	3836.00
421.57	3786.00
422.03	3795.00
422.49	3783.00
422.95	3741.00
423.41	3773.00
423.87	3812.00
424.34	3779.00
424.80	3840.00
425.26	3837.00
425.72	3759.00
426.18	3747.00
426.64	3809.00
427.10	3803.00
427.57	3734.00
428.03	3746.00
428.49	3743.00
428.95	3721.00
429.41	3683.00
429.87	3645.00
430.33	3593.00
430.79	3604.00
431.26	3648.00
431.72	3781.00
432.18	3920.00
432.64	3914.00
433.10	3828.00
433.56	3876.00
434.02	3886.00
434.48	3868.00
434.94	3931.00
435.40	3989.00
435.87	4011.00
436.33	4013.00
436.79	4031.00
437.25	4036.00
437.71	3960.00
438.17	3959.00
438.63	3945.00
439.09	3954.00
439.55	4020.00
440.01	4048.00
440.47	4075.00
440.93	4099.00
441.39	4100.00
441.85	4166.00
442.32	4186.00
442.78	4169.00
443.24	4182.00
443.70	4209.00
444.16	4190.00
444.62	4193.00
445.08	4268.00
445.54	4221.00
446.00	4216.00
446.46	4242.00
446.92	4243.00
447.38	4321.00
447.84	4350.00
448.30	4372.00
448.76	4344.00
449.22	4407.00
449.68	4393.00
450.14	4401.00
450.60	4422.00
451.06	4489.00
451.52	4455.00
451.98	4431.00
452.44	4378.00
452.90	4322.00
453.36	4359.00
453.82	4379.00
454.28	4428.00
454.74	4430.00
455.20	4431.00
455.66	4437.00
456.12	4477.00
456.58	4549.00
457.04	4514.00
457.50	4517.00
457.96	4484.00
458.42	4503.00
458.88	4447.00
459.34	4438.00
459.80	4522.00
460.26	4557.00
460.72	4515.00
461.18	4580.00
461.64	4610.00
462.10	4597.00
462.55	4575.00
463.01	4589.00
463.47	4597.00
463.93	4557.00
464.39	4542.00
464.85	4525.00
465.31	4538.00
465.77	4543.00
466.23	4532.00
466.69	4579.00
467.15	4508.00
467.61	4577.00
468.07	4531.00
468.52	4555.00
468.98	4609.00
469.44	4606.00
469.90	4567.00
470.36	4599.00
470.82	4602.00
471.28	4589.00
471.74	4599.00
472.20	4647.00
472.66	4672.00
473.11	4691.00
473.57	4665.00
474.03	4703.00
474.49	4697.00
474.95	4695.00
475.41	4693.00
475.87	4677.00
476.33	4685.00
476.78	4642.00
477.24	4667.00
477.70	4693.00
478.16	4784.00
478.62	4756.00
479.08	4709.00
479.54	4756.00
479.99	4775.00
480.45	4808.00
480.91	4819.00
481.37	4800.00
481.83	4799.00
482.29	4818.00
482.74	4784.00
483.20	4804.00
483.66	4728.00
484.12	4728.00
484.58	4700.00
485.04	4622.00
485.49	4586.00
485.95	4523.00
486.41	4488.00
486.87	4479.00
487.33	4630.00
487.78	4716.00
488.24	4722.00
488.70	4773.00
489.16	4764.00
489.62	4751.00
490.07	4835.00
490.53	4792.00
490.99	4792.00
491.45	4783.00
491.90	4719.00
492.36	4706.00
492.82	4780.00
493.28	4831.00
493.74	4860.00
494.19	4817.00
494.65	4855.00
495.11	4876.00
495.57	4845.00
496.02	4817.00
496.48	4829.00
496.94	4870.00
497.40	4822.00
497.85	4866.00
498.31	4827.00
498.77	4760.00
499.23	4808.00
499.68	4815.00
500.14	4785.00
500.60	4796.00
501.06	4742.00
501.51	4758.00
501.97	4767.00
502.43	4734.00
502.88	4864.00
503.34	4764.00
503.80	4761.00
504.26	4800.00
504.71	4802.00
505.17	4852.00
505.63	4955.00
506.08	4902.00
506.54	4921.00
507.00	4897.00
507.45	4881.00
507.91	4874.00
508.37	4900.00
508.82	4887.00
509.28	4929.00
509.74	4989.00
510.19	4869.00
510.65	4958.00
511.11	4965.00
511.56	4984.00
512.02	4979.00
512.48	4906.00
512.93	4861.00
513.39	4869.00
513.85	4865.00
514.30	4886.00
514.76	4840.00
515.22	4864.00
515.67	4812.00
516.13	4806.00
516.59	4723.00
517.04	4637.00
517.50	4612.00
517.95	4723.00
518.41	4737.00
518.87	4796.00
519.32	4771.00
519.78	4925.00
520.24	4909.00
520.69	4969.00
521.15	5020.00
521.60	4970.00
522.06	4982.00
522.52	4973.00
522.97	4958.00
523.43	4915.00
523.88	5029.00
524.34	5072.00
524.80	5051.00
525.25	5028.00
525.71	4994.00
526.16	4941.00
526.62	4912.00
527.07	4865.00
527.53	4861.00
527.99	5012.00
528.44	5109.00
528.90	5067.00
529.35	5089.00
529.81	5097.00
530.26	5099.00
530.72	5127.00
531.17	5182.00
531.63	5163.00
532.09	5080.00
532.54	5047.00
533.00	5047.00
533.45	4963.00
533.91	5054.00
534.36	5114.00
534.82	5117.00
535.27	5140.00
535.73	5207.00
536.18	5155.00
536.64	5120.00
537.09	5129.00
537.55	5128.00
538.00	5110.00
538.46	5112.00
538.91	5104.00
539.37	5071.00
539.82	5039.00
540.28	4997.00
540.73	5049.00
541.19	5071.00
541.64	5086.00
542.10	5089.00
542.55	5097.00
543.01	5125.00
543.46	5158.00
543.92	5142.00
544.37	5159.00
544.83	5171.00
545.28	5103.00
545.74	5120.00
546.19	5199.00
546.64	5151.00
547.10	5159.00
547.55	5162.00
548.01	5196.00
548.46	5118.00
548.92	5174.00
549.37	5175.00
549.83	5151.00
550.28	5195.00
550.73	5205.00
551.19	5214.00
551.64	5224.00
552.10	5192.00
552.55	5135.00
553.00	5213.00
553.46	5191.00
553.91	5209.00
554.37	5277.00
554.82	5250.00
555.28	5198.00
555.73	5284.00
556.18	5204.00
556.64	5173.00
557.09	5163.00
557.54	5155.00
558.00	5198.00
558.45	5105.00
558.91	5148.00
559.36	5063.00
559.81	5140.00
560.27	5108.00
560.72	5146.00
561.17	5159.00
561.63	5215.00
562.08	5114.00
562.54	5175.00
562.99	5171.00
563.44	5167.00
563.90	5226.00
564.35	5220.00
564.80	5215.00
565.26	5144.00
565.71	5122.00
566.16	5166.00
566.62	5153.00
567.07	5143.00
567.52	5134.00
567.98	5157.00
568.43	5143.00
568.88	5161.00
569.34	5193.00
569.79	5143.00
570.24	5169.00
570.69	5102.00
571.15	5131.00
571.60	5028.00
572.05	5170.00
572.51	5209.00
572.96	5190.00
573.41	5217.00
573.86	5137.00
574.32	5207.00
574.77	5177.00
575.22	5107.00
575.68	5161.00
576.13	5168.00
576.58	5165.00
577.03	5223.00
577.49	5168.00
577.94	5099.00
578.39	5152.00
578.84	5218.00
579.30	5177.00
579.75	5158.00
580.20	5235.00
580.65	5247.00
581.11	5213.00
581.56	5193.00
582.01	5251.00
582.46	5348.00
582.92	5273.00
583.37	5288.00
583.82	5342.00
584.27	5283.00
584.72	5235.00
585.18	5247.00
585.63	5203.00
586.08	5233.00
586.53	5197.00
586.98	5281.00
587.44	5275.00
587.89	5210.00
588.34	5115.00
588.79	4974.00
589.24	4977.00
589.70	4932.00
590.15	5026.00
590.60	5129.00
591.05	5137.00
591.50	5177.00
591.96	5177.00
592.41	5185.00
592.86	5194.00
593.31	5212.00
593.76	5137.00
594.21	5161.00
594.66	5159.00
595.12	5108.00
595.57	5141.00
596.02	5164.00
596.47	5199.00
596.92	5188.00
597.37	5239.00
597.82	5188.00
598.28	5128.00
598.73	5240.00
599.18	5160.00
599.63	5195.00
600.08	5241.00
600.53	5233.00
600.98	5223.00
601.43	5166.00
601.88	5153.00
602.34	5186.00
602.79	5180.00
603.24	5240.00
603.69	5257.00
604.14	5306.00
604.59	5229.00
605.04	5302.00
605.49	5219.00
605.94	5245.00
606.39	5273.00
606.84	5256.00
607.30	5266.00
607.75	5290.00
608.20	5258.00
608.65	5276.00
609.10	5255.00
609.55	5299.00
610.00	5189.00
610.45	5268.00
610.90	5284.00
611.35	5250.00
611.80	5228.00
612.25	5301.00
612.70	5239.00
613.15	5203.00
613.60	5167.00
614.05	5214.00
614.50	5181.00
614.95	5191.00
615.40	5240.00
615.85	5142.00
616.30	5164.00
616.75	5133.00
617.20	5145.00
617.65	5190.00
618.10	5224.00
618.55	5264.00
619.00	5234.00
619.45	5243.00
619.90	5269.00
620.35	5246.00
620.80	5344.00
621.25	5281.00
621.70	5281.00
622.15	5254.00
622.60	5246.00
623.05	5275.00
623.50	5186.00
623.95	5156.00
624.40	5199.00
624.85	5188.00
625.30	5159.00
625.75	5165.00
626.20	5142.00
626.65	5232.00
627.10	5273.00
627.55	5124.00
627.99	5121.00
628.44	5099.00
628.89	5168.00
629.34	5195.00
629.79	5185.00
630.24	5107.00
630.69	5191.00
631.14	5167.00
631.59	5176.00
632.04	5191.00
632.49	5205.00
632.94	5210.00
633.38	5229.00
633.83	5258.00
634.28	5223.00
634.73	5246.00
635.18	5242.00
635.63	5238.00
636.08	5258.00
636.53	5293.00
636.97	5283.00
637.42	5288.00
637.87	5320.00
638.32	5342.00
638.77	5353.00
639.22	5313.00
639.67	5328.00
640.11	5286.00
640.56	5284.00
641.01	5251.00
641.46	5300.00
641.91	5284.00
642.36	5269.00
642.81	5314.00
643.25	5282.00
643.70	5281.00
644.15	5318.00
644.60	5312.00
645.05	5292.00
645.49	5291.00
645.94	5286.00
646.39	5228.00
646.84	5248.00
647.29	5188.00
647.73	5250.00
648.18	5268.00
648.63	5279.00
649.08	5158.00
649.53	5161.00
649.97	5178.00
650.42	5199.00
650.87	5276.00
651.32	5255.00
651.77	5254.00
652.21	5197.00
652.66	5225.00
653.11	5226.00
653.56	5276.00
654.00	5250.00
654.45	5258.00
654.90	5174.00
655.35	5133.00
655.79	4963.00
656.24	4862.00
656.69	4882.00
657.14	5003.00
657.58	5069.00
658.03	5175.00
658.48	5239.00
658.92	5262.00
659.37	5216.00
659.82	5283.00
660.27	5241.00
660.71	5305.00
661.16	5281.00
661.61	5311.00
662.05	5267.00
662.50	5315.00
662.95	5355.00
663.39	5312.00
663.84	5275.00
664.29	5295.00
664.74	5271.00
665.18	5276.00
665.63	5311.00
666.08	5285.00
666.52	5290.00
666.97	5287.00
667.42	5314.00
667.86	5245.00
668.31	5266.00
668.76	5305.00
669.20	5338.00
669.65	5309.00
670.09	5260.00
670.54	5256.00
670.99	5238.00
671.43	5252.00
671.88	5237.00
672.33	5236.00
672.77	5271.00
673.22	5276.00
673.66	5260.00
674.11	5251.00
674.56	5282.00
675.00	5304.00
675.45	5266.00
675.90	5254.00
676.34	5295.00
676.79	5240.00
677.23	5245.00
677.68	5239.00
678.12	5275.00
678.57	5236.00
679.02	5286.00
679.46	5270.00
679.91	5261.00
680.35	5257.00
680.80	5270.00
681.25	5230.00
681.69	5273.00
682.14	5220.00
682.58	5223.00
683.03	5170.00
683.47	5199.00
683.92	5141.00
684.36	5195.00
684.81	5148.00
685.25	5203.00
685.70	5165.00
686.15	5064.00
686.59	4887.00
687.04	4530.00
687.48	4432.00
687.93	4492.00
688.37	4688.00
688.82	4747.00
689.26	4737.00
689.71	4691.00
690.15	4715.00
690.60	4793.00
691.04	4866.00
691.49	4932.00
691.93	4942.00
692.38	5005.00
692.82	4938.00
693.27	4971.00
693.71	4881.00
694.16	4888.00
694.60	4905.00
695.04	4924.00
695.49	4945.00
695.93	5004.00
696.38	4996.00
696.82	5116.00
697.27	5107.00
697.71	5110.00
698.16	5020.00
698.60	5075.00
699.04	4967.00
699.49	4989.00
699.93	4953.00
700.38	4970.00
700.82	4970.00
701.27	4932.00
701.71	4925.00
702.15	4935.00
702.60	4914.00
703.04	4957.00
703.49	4971.00
703.93	4988.00
704.37	5034.00
704.82	5059.00
705.26	5041.00
705.71	5001.00
706.15	5023.00
706.59	4986.00
707.04	4973.00
707.48	5063.00
707.93	5014.00
708.37	5090.00
708.81	4980.00
709.26	5026.00
709.70	4991.00
710.14	5039.00
710.59	5059.00
711.03	5037.00
711.47	5048.00
711.92	5012.00
712.36	5019.00
712.80	4982.00
713.25	4975.00
713.69	5052.00
714.13	4981.00
714.58	4984.00
715.02	4952.00
715.46	4938.00
715.91	4890.00
716.35	4814.00
716.79	4706.00
717.24	4488.00
717.68	4412.00
718.12	4361.00
718.57	4332.00
719.01	4329.00
719.45	4289.00
719.89	4280.00
720.34	4298.00
720.78	4384.00
721.22	4514.00
721.66	4658.00
722.11	4762.00
722.55	4699.00
722.99	4614.00
723.44	4503.00
723.88	4376.00
724.32	4406.00
724.76	4386.00
725.21	4393.00
725.65	4469.00
726.09	4452.00
726.53	4496.00
726.97	4451.00
727.42	4475.00
727.86	4427.00
728.30	4515.00
728.74	4493.00
729.19	4419.00
729.63	4471.00
730.07	4499.00
730.51	4489.00
730.95	4467.00
731.40	4488.00
731.84	4585.00
732.28	4603.00
732.72	4661.00
733.16	4646.00
733.61	4724.00
734.05	4729.00
734.49	4771.00
734.93	4732.00
735.37	4703.00
735.81	4748.00
736.26	4709.00
736.70	4739.00
737.14	4694.00
737.58	4759.00
738.02	4774.00
738.46	4743.00
738.90	4660.00
739.35	4690.00
739.79	4715.00
740.23	4837.00
740.67	4724.00
741.11	4747.00
741.55	4742.00
741.99	4674.00
742.44	4792.00
742.88	4773.00
743.32	4770.00
743.76	4797.00
744.20	4836.00
744.64	4729.00
745.08	4768.00
745.52	4824.00
745.96	4783.00
746.40	4758.00
746.84	4832.00
747.29	4796.00
747.73	4831.00
748.17	4803.00
748.61	4825.00
749.05	4806.00
749.49	4810.00
749.93	4825.00
750.37	4855.00
750.81	4811.00
751.25	4797.00
751.69	4846.00
752.13	4829.00
752.57	4790.00
753.01	4782.00
753.45	4835.00
753.89	4775.00
754.33	4772.00
754.77	4816.00
755.21	4803.00
755.65	4816.00
756.09	4789.00
756.53	4787.00
756.97	4835.00
757.41	4753.00
757.85	4751.00
758.29	4737.00
758.73	4702.00
759.17	4502.00
759.61	3939.00
760.05	3339.00
760.49	2972.00
760.93	2937.00
761.37	3108.00
761.81	3538.00
762.25	3633.00
762.69	3489.00
763.13	3335.00
763.57	3387.00
764.01	3445.00
764.45	3584.00
764.89	3718.00
765.33	3874.00
765.77	3987.00
766.21	4083.00
766.65	4272.00
767.09	4371.00
767.53	4444.00
767.96	4561.00
768.40	4565.00
768.84	4598.00
769.28	4632.00
769.72	4606.00
770.16	4622.00
770.60	4643.00
771.04	4660.00
771.48	4738.00
771.92	4667.00
772.35	4688.00
772.79	4695.00
773.23	4689.00
773.67	4708.00
774.11	4681.00
774.55	4614.00
774.99	4657.00
775.43	4650.00
775.86	4669.00
776.30	4693.00
776.74	4688.00
777.18	4678.00
777.62	4649.00
778.06	4701.00
778.50	4639.00
778.93	4625.00
779.37	4634.00
779.81	4647.00
780.25	4602.00
780.69	4593.00
781.12	4603.00
781.56	4608.00
782.00	4650.00
782.44	4671.00
782.88	4631.00
783.32	4599.00
783.75	4589.00
784.19	4606.00
784.63	4577.00
785.07	4548.00
785.50	4537.00
785.94	4563.00
786.38	4587.00
786.82	4513.00
787.26	4539.00
787.69	4515.00
788.13	4492.00
788.57	4537.00
789.01	4490.00
789.44	4512.00
789.88	4484.00
790.32	4480.00
790.76	4431.00
791.19	4435.00
791.63	4430.00
792.07	4417.00
792.51	4414.00
792.94	4423.00
793.38	4369.00
793.82	4442.00
794.25	4415.00
794.69	4469.00
795.13	4444.00
795.56	4421.00
796.00	4364.00
796.44	4352.00
796.88	4358.00
797.31	4372.00
797.75	4364.00
798.19	4386.00
798.62	4353.00
799.06	4389.00
799.50	4349.00
799.93	4344.00
800.37	4348.00
800.81	4344.00
801.24	4392.00
801.68	4312.00
802.12	4319.00
802.55	4299.00
802.99	4281.00
803.43	4294.00
803.86	4323.00
804.30	4331.00
804.73	4242.00
805.17	4290.00
805.61	4370.00
806.04	4323.00
806.48	4338.00
806.92	4312.00
807.35	4339.00
807.79	4327.00
808.22	4302.00
808.66	4264.00
809.10	4299.00
809.53	4252.00
809.97	4222.00
810.40	4244.00
810.84	4206.00
811.27	4185.00
811.71	4180.00
812.15	4183.00
812.58	4155.00
813.02	4129.00
813.45	4056.00
813.89	3974.00
814.32	3998.00
814.76	3897.00
815.19	3913.00
815.63	3858.00
816.07	3821.00
816.50	3793.00
816.94	3793.00
817.37	3872.00
817.81	3822.00
818.24	3819.00
818.68	3887.00
819.11	3878.00
819.55	3876.00
819.98	3851.00
820.42	4038.00
820.85	4047.00
821.29	3995.00
821.72	3992.00
822.16	3898.00
822.59	3741.00
823.03	3624.00
823.46	3728.00
823.90	3906.00
824.33	3961.00
824.77	4026.00
825.20	4101.00
825.63	4025.00
826.07	3942.00
826.50	4029.00
826.94	4012.00
827.37	3897.00
827.81	3878.00
828.24	3849.00
828.68	3899.00
829.11	3893.00
829.54	3903.00
829.98	3940.00
830.41	3926.00
830.85	3944.00
831.28	4005.00
831.71	3968.00
832.15	3942.00
832.58	3962.00
833.02	3978.00
833.45	3923.00
833.88	3930.00
834.32	3988.00
834.75	4008.00
835.19	4003.00
835.62	3982.00
836.05	3998.00
836.49	3960.00
836.92	4048.00
837.35	4031.00
837.79	4050.00
838.22	4094.00
838.66	4064.00
839.09	4105.00
839.52	4100.00
839.96	4114.00
840.39	4076.00
840.82	4089.00
841.26	4042.00
841.69	4012.00
842.12	4052.00
842.56	4045.00
842.99	4047.00
843.42	4037.00
843.85	4055.00
844.29	4056.00
844.72	4041.00
845.15	4087.00
845.59	4122.00
846.02	4133.00
846.45	4045.00
846.88	4059.00
847.32	4070.00
847.75	4015.00
848.18	4039.00
848.62	4010.00
849.05	4052.00
849.48	3955.00
849.91	3858.00
850.35	4001.00
850.78	4046.00
851.21	4010.00
851.64	4012.00
852.08	4061.00
852.51	4031.00
852.94	4008.00
853.37	4000.00
853.80	3823.00
854.24	3716.00
854.67	3807.00
855.10	3925.00
855.53	3973.00
855.97	3971.00
856.40	4017.00
856.83	4033.00
857.26	4049.00
857.69	4017.00
858.13	4019.00
858.56	4070.00
858.99	4027.00
859.42	4040.00
859.85	4003.00
860.28	4041.00
860.72	4080.00
861.15	3988.00
861.58	3987.00
862.01	4015.00
862.44	4000.00
862.87	4014.00
863.30	4038.00
863.74	4019.00
864.17	3986.00
864.60	3990.00
865.03	3959.00
865.46	3927.00
865.89	3810.00
866.32	3793.00
866.75	3908.00
867.19	3950.00
867.62	3983.00
868.05	4017.00
868.48	3980.00
868.91	3938.00
869.34	3953.00
869.77	3925.00
870.20	3975.00
870.63	3956.00
871.06	3951.00
871.49	3943.00
871.93	3994.00
872.36	3973.00
872.79	3933.00
873.22	3941.00
873.65	3950.00
874.08	3946.00
874.51	3937.00
874.94	3999.00
875.37	3933.00
875.80	3954.00
876.23	3948.00
876.66	3951.00
877.09	3883.00
877.52	3891.00
877.95	3885.00
878.38	3899.00
878.81	3899.00
879.24	3843.00
879.67	3892.00
880.10	3907.00
880.53	3825.00
880.96	3872.00
881.39	3954.00
881.82	3894.00
882.25	3896.00
882.68	3921.00
883.11	3923.00
883.54	3924.00
883.97	3908.00
884.40	3909.00
884.83	3885.00
885.26	3888.00
885.69	3830.00
886.12	3877.00
886.55	3862.00
886.98	3859.00
887.40	3875.00
887.83	3866.00
888.26	3896.00
888.69	3872.00
889.12	3883.00
889.55	3880.00
889.98	3910.00
890.41	3900.00
890.84	3889.00
891.27	3903.00
891.70	3874.00
892.12	3875.00
892.55	3792.00
892.98	3754.00
893.41	3762.00
893.84	3788.00
894.27	3716.00
894.70	3710.00
895.13	3643.00
895.55	3674.00
895.98	3553.00
896.41	3560.00
896.84	3560.00
897.27	3554.00
897.70	3583.00
898.13	3558.00
898.55	3372.00
898.98	3436.00
899.41	3585.00
899.84	3472.00
900.27	3472.00
900.70	3485.00
901.12	3434.00
901.55	3513.00
901.98	3452.00
902.41	3474.00
902.84	3588.00
903.26	3680.00
903.69	3669.00
904.12	3678.00
904.55	3689.00
904.97	3653.00
905.40	3639.00
905.83	3600.00
906.26	3542.00
906.69	3480.00
907.11	3457.00
907.54	3475.00
907.97	3457.00
908.40	3430.00
908.82	3467.00
909.25	3452.00
909.68	3414.00
910.10	3442.00
910.53	3457.00
910.96	3508.00
911.39	3437.00
911.81	3452.00
912.24	3432.00
912.67	3375.00
913.09	3329.00
913.52	3404.00
913.95	3454.00
914.38	3524.00
914.80	3358.00
915.23	3352.00
915.66	3433.00
916.08	3506.00
916.51	3454.00
916.94	3357.00
917.36	3339.00
917.79	3414.00
918.22	3460.00
918.64	3485.00
919.07	3455.00
919.50	3518.00
919.92	3557.00
920.35	3531.00
920.78	3487.00
921.20	3488.00
921.63	3456.00
922.05	3499.00
922.48	3484.00
922.91	3478.00
923.33	3415.00
923.76	3438.00
924.18	3443.00
924.61	3431.00
925.04	3462.00
925.46	3430.00
925.89	3406.00
926.31	3429.00
926.74	3415.00
927.17	3302.00
927.59	3231.00
928.02	3195.00
928.44	3182.00
928.87	3147.00
929.29	3097.00
929.72	3059.00
930.15	3027.00
930.57	3020.00
931.00	2928.00
931.42	2882.00
931.85	2854.00
932.27	2887.00
932.70	2824.00
933.12	2790.00
933.55	2754.00
933.97	2775.00
934.40	2860.00
934.82	2817.00
935.25	2792.00
935.67	2822.00
936.10	2778.00
936.52	2750.00
936.95	2763.00
937.37	2757.00
937.80	2790.00
938.22	2878.00
938.65	2921.00
939.07	2927.00
939.50	2849.00
939.92	2856.00
940.35	2841.00
940.77	2837.00
941.19	2842.00
941.62	2830.00
942.04	2777.00
942.47	2800.00
942.89	2817.00
943.32	2763.00
943.74	2762.00
944.16	2799.00
944.59	2826.00
945.01	2786.00
945.44	2778.00
945.86	2797.00
946.29	2803.00
946.71	2820.00
947.13	2813.00
947.56	2815.00
947.98	2845.00
948.40	2859.00
948.83	2818.00
949.25	2769.00
949.68	2823.00
950.10	2908.00
950.52	2914.00
950.95	2853.00
951.37	2796.00
951.79	2818.00
952.22	2851.00
952.64	2899.00
953.06	2887.00
953.49	2885.00
953.91	2847.00
954.33	2889.00
954.76	2873.00
955.18	2891.00
955.60	2905.00
956.03	2894.00
956.45	2934.00
956.87	2967.00
957.30	2942.00
957.72	2956.00
958.14	2898.00
958.56	2883.00
958.99	2927.00
959.41	2963.00
959.83	2946.00
960.26	3007.00
960.68	3012.00
961.10	3012.00
961.52	2962.00
961.95	3010.00
962.37	3053.00
962.79	3023.00
963.21	3004.00
963.64	3037.00
964.06	3037.00
964.48	3081.00
964.90	3055.00
965.32	3039.00
965.75	3044.00
966.17	3083.00
966.59	3139.00
967.01	3163.00
967.44	3161.00
967.86	3166.00
968.28	3201.00
968.70	3229.00
969.12	3179.00
969.54	3187.00
969.97	3209.00
970.39	3208.00
970.81	3204.00
971.23	3188.00
971.65	3161.00
972.07	3164.00
972.50	3144.00
972.92	3117.00
973.34	3142.00
973.76	3145.00
974.18	3141.00
974.60	3137.00
975.02	3132.00
975.45	3115.00
975.87	3129.00
976.29	3165.00
976.71	3154.00
977.13	3156.00
977.55	3148.00
977.97	3173.00
978.39	3150.00
978.81	3156.00
979.24	3137.00
979.66	3178.00
980.08	3210.00
980.50	3214.00
980.92	3192.00
981.34	3208.00
981.76	3178.00
982.18	3210.00
982.60	3188.00
983.02	3228.00
983.44	3191.00
983.86	3217.00
984.28	3201.00
984.70	3202.00
985.12	3184.00
985.54	3191.00
985.96	3187.00
986.38	3165.00
986.80	3207.00
987.23	3202.00
987.65	3212.00
988.07	3195.00
988.49	3193.00
988.91	3182.00
989.33	3190.00
989.74	3204.00
990.16	3195.00
990.58	3209.00
991.00	3201.00
991.42	3187.00
991.84	3195.00
992.26	3203.00
992.68	3185.00
993.10	3182.00
993.52	3150.00
993.94	3160.00
994.36	3165.00
994.78	3134.00
995.20	3164.00
995.62	3198.00
996.04	3165.00
996.46	3179.00
996.88	3165.00
997.30	3185.00
997.71	3191.00
998.13	3179.00
998.55	3199.00
998.97	3173.00
999.39	3194.00
999.81	3171.00
1000.23	3179.00
1000.65	3206.00
1001.07	3178.00
1001.49	3169.00
1001.90	3162.00
1002.32	3177.00
1002.74	3160.00
1003.16	3178.00
1003.58	3146.00
1004.00	3171.00
1004.42	3160.00
1004.83	3154.00
1005.25	3143.00
1005.67	3174.00
1006.09	3125.00
1006.51	3155.00
1006.92	3151.00
1007.34	3170.00
1007.76	3115.00
1008.18	3152.00
1008.60	3172.00
1009.02	3101.00
1009.43	3155.00
1009.85	3147.00
1010.27	3136.00
1010.69	3140.00
1011.10	3106.00
1011.52	3126.00
1011.94	3107.00
1012.36	3114.00
1012.78	3111.00
1013.19	3110.00
1013.61	3110.00
1014.03	3095.00
1014.45	3054.00
1014.86	3088.00
1015.28	3098.00
1015.70	3073.00
1016.12	3069.00
1016.53	3054.00
1016.95	3054.00
1017.37	3050.00
1017.78	3056.00
1018.20	3051.00
1018.62	3029.00
1019.03	3031.00
1019.45	3036.00
1019.87	3053.00
1020.29	3038.00
1020.70	3028.00
1021.12	3043.00
1021.54	3011.00
1021.95	3046.00
1022.37	3016.00
1022.79	3006.00
1023.20	3007.00
1023.62	3008.00
1024.04	2971.00
1024.45	3008.00
1024.87	2983.00
1025.28	2989.00
1025.70	2974.00
1026.12	2996.00
1026.53	2982.00
1026.95	2993.00
1027.37	2965.00
1027.78	2956.00
1028.20	2956.00
1028.61	2955.00
1029.03	2963.00
1029.45	2958.00
1029.86	2957.00
1030.28	2945.00
1030.69	2946.00
1031.11	2912.00
1031.53	2938.00
1031.94	2903.00
1032.36	2937.00
1032.77	2904.00
1033.19	2930.00
1033.60	2908.00
1034.02	2910.00
1034.43	2898.00
1034.85	2909.00
1035.27	2882.00
1035.68	2907.00
1036.10	2896.00
1036.51	2882.00
1036.93	2894.00
1037.34	2882.00
1037.76	2877.00
1038.17	2903.00
1038.59	2860.00
1039.00	2837.00
1039.42	2860.00
1039.83	2875.00
1040.25	2880.00
1040.66	2860.00
1041.08	2854.00
1041.49	2855.00
1041.91	2858.00
1042.32	2862.00
1042.73	2833.00
1043.15	2833.00
1043.56	2819.00
1043.98	2826.00
1044.39	2839.00
1044.81	2824.00
1045.22	2827.00
1045.64	2818.00
1046.05	2808.00
1046.46	2802.00
1046.88	2815.00
1047.29	2807.00
1047.71	2819.00
1048.12	2803.00
1048.53	2778.00
1048.95	2803.00
1049.36	2785.00
1049.78	2782.00
1050.19	2773.00
1050.60	2793.00
1051.02	2796.00
1051.43	2791.00
1051.85	2787.00
1052.26	2773.00
1052.67	2777.00
1053.09	2765.00
1053.50	2784.00
1053.91	2765.00
1054.33	2757.00
1054.74	2765.00
1055.15	2770.00
1055.57	2754.00
1055.98	2744.00
1056.39	2755.00
1056.81	2746.00
1057.22	2742.00
1057.63	2739.00
1058.05	2729.00
1058.46	2731.00
1058.87	2722.00
1059.28	2730.00
1059.70	2736.00
1060.11	2726.00
1060.52	2731.00
1060.94	2725.00
1061.35	2721.00
1061.76	2707.00
1062.17	2703.00
1062.59	2708.00
1063.00	2713.00
1063.41	2708.00
1063.82	2715.00
1064.24	2707.00
1064.65	2708.00
1065.06	2717.00
1065.47	2714.00
1065.89	2703.00
1066.30	2708.00
1066.71	2701.00
1067.12	2694.00
1067.53	2702.00
1067.95	2680.00
1068.36	2686.00
1068.77	2687.00
1069.18	2681.00
1069.59	2675.00
1070.00	2679.00
1070.42	2682.00
1070.83	2672.00
1071.24	2680.00
1071.65	2680.00
1072.06	2673.00
1072.47	2666.00
1072.89	2670.00
1073.30	2669.00
1073.71	2686.00
1074.12	2666.00
1074.53	2666.00
1074.94	2649.00
1075.35	2661.00
1075.77	2658.00
1076.18	2670.00
1076.59	2660.00
1077.00	2651.00
1077.41	2647.00
1077.82	2650.00
1078.23	2651.00
1078.64	2648.00
1079.05	2653.00
1079.46	2657.00
1079.87	2663.00
1080.29	2642.00
1080.70	2642.00
1081.11	2642.00
1081.52	2637.00
1081.93	2636.00
1082.34	2628.00
1082.75	2640.00
1083.16	2620.00
1083.57	2638.00
1083.98	2635.00
1084.39	2634.00
1084.80	2639.00
1085.21	2636.00
1085.62	2631.00
1086.03	2647.00
1086.44	2631.00
1086.85	2629.00
1087.26	2638.00
1087.67	2635.00
1088.08	2631.00
1088.49	2625.00
1088.90	2631.00
1089.31	2622.00
1089.72	2619.00
1090.13	2623.00
1090.54	2624.00
1090.95	2616.00
1091.36	2621.00
1091.77	2618.00
1092.18	2619.00
1092.59	2614.00
1093.00	2620.00
1093.40	2607.00
1093.81	2623.00
1094.22	2615.00
1094.63	2612.00
1095.04	2614.00
1095.45	2614.00
1095.86	2611.00
1096.27	2607.00
1096.68	2605.00
1097.09	2606.00
1097.50	2608.00
1097.90	2602.00
1098.31	2597.00
1098.72	2594.00
1099.13	2600.00
1099.54	2598.00
1099.95	2598.00
1100.36	2591.00
1100.76	2591.00
1101.17	2596.00
1101.58	2596.00
1101.99	2587.00
1102.40	2593.00
1102.81	2595.00
1103.22	2587.00
1103.62	2595.00
1104.03	2597.00
1104.44	2592.00
1104.85	2589.00
1105.26	2589.00
1105.66	2592.00
1106.07	2584.00
1106.48	2592.00
1106.89	2591.00
1107.30	2589.00
1107.70	2586.00
1108.11	2592.00
1108.52	2582.00
1108.93	2585.00
1109.33	2588.00
1109.74	2583.00
1110.15	2586.00
1110.56	2578.00
1110.96	2587.00
1111.37	2588.00
1111.78	2579.00
1112.19	2597.00
1112.59	2576.00
1113.00	2580.00
1113.41	2582.00
1113.81	2580.00
1114.22	2571.00
1114.63	2556.00
1115.03	2564.00
1115.44	2556.00
1115.85	2557.00
>>>>>End Processed Spectral Data<<<<<
