SpectraSuite Data File
++++++++++++++++++++++++++++++++++++
Date: Thu Aug 05 10:45:32 EEST 2021
User: CanSEE
Dark Spectrum Present: No
Reference Spectrum Present: No
Number of Sampled Component Spectra: 1
Spectrometers: MAYP112785
Integration Time (usec): 10000 (MAYP112785)
Spectra Averaged: 1 (MAYP112785)
Boxcar Smoothing: 0 (MAYP112785)
Correct for Electrical Dark: No (MAYP112785)
Strobe/Lamp Enabled: No (MAYP112785)
Correct for Detector Non-linearity: No (MAYP112785)
Correct for Stray Light: No (MAYP112785)
Number of Pixels in Processed Spectrum: 2068
>>>>>Begin Processed Spectral Data<<<<<
198.35	3483.00
198.82	2487.00
199.30	2589.00
199.77	2576.00
200.24	2608.00
200.71	2603.00
201.18	2605.00
201.65	2608.00
202.13	2606.00
202.60	2606.00
203.07	2609.00
203.54	2608.00
204.01	2608.00
204.48	2608.00
204.96	2601.00
205.43	2604.00
205.90	2606.00
206.37	2605.00
206.84	2599.00
207.31	2608.00
207.78	2603.00
208.26	2613.00
208.73	2599.00
209.20	2602.00
209.67	2604.00
210.14	2609.00
210.61	2597.00
211.08	2608.00
211.56	2609.00
212.03	2605.00
212.50	2611.00
212.97	2606.00
213.44	2605.00
213.91	2602.00
214.38	2602.00
214.85	2595.00
215.33	2600.00
215.80	2605.00
216.27	2599.00
216.74	2606.00
217.21	2608.00
217.68	2609.00
218.15	2604.00
218.62	2601.00
219.09	2607.00
219.57	2605.00
220.04	2605.00
220.51	2604.00
220.98	2609.00
221.45	2612.00
221.92	2614.00
222.39	2605.00
222.86	2599.00
223.33	2604.00
223.80	2615.00
224.27	2606.00
224.74	2603.00
225.22	2606.00
225.69	2611.00
226.16	2605.00
226.63	2605.00
227.10	2609.00
227.57	2608.00
228.04	2605.00
228.51	2608.00
228.98	2607.00
229.45	2605.00
229.92	2601.00
230.39	2604.00
230.86	2603.00
231.33	2609.00
231.80	2606.00
232.27	2606.00
232.75	2608.00
233.22	2600.00
233.69	2610.00
234.16	2598.00
234.63	2610.00
235.10	2611.00
235.57	2602.00
236.04	2605.00
236.51	2600.00
236.98	2602.00
237.45	2597.00
237.92	2600.00
238.39	2601.00
238.86	2612.00
239.33	2671.00
239.80	2608.00
240.27	2611.00
240.74	2601.00
241.21	2610.00
241.68	2605.00
242.15	2605.00
242.62	2612.00
243.09	2608.00
243.56	2610.00
244.03	2606.00
244.50	2609.00
244.97	2609.00
245.44	2616.00
245.91	2608.00
246.38	2613.00
246.85	2605.00
247.32	2608.00
247.79	2608.00
248.26	2612.00
248.73	2612.00
249.20	2608.00
249.67	2609.00
250.14	2608.00
250.61	2607.00
251.08	2604.00
251.55	2606.00
252.02	2604.00
252.49	2600.00
252.96	2604.00
253.43	2609.00
253.90	2611.00
254.37	2609.00
254.84	2611.00
255.31	2605.00
255.77	2613.00
256.24	2601.00
256.71	2609.00
257.18	2598.00
257.65	2604.00
258.12	2616.00
258.59	2598.00
259.06	2611.00
259.53	2604.00
260.00	2612.00
260.47	2609.00
260.94	2602.00
261.41	2604.00
261.88	2607.00
262.35	2611.00
262.81	2606.00
263.28	2606.00
263.75	2606.00
264.22	2608.00
264.69	2612.00
265.16	2609.00
265.63	2605.00
266.10	2602.00
266.57	2617.00
267.04	2606.00
267.51	2605.00
267.97	2613.00
268.44	2602.00
268.91	2610.00
269.38	2616.00
269.85	2613.00
270.32	2603.00
270.79	2608.00
271.26	2606.00
271.73	2611.00
272.19	2600.00
272.66	2604.00
273.13	2596.00
273.60	2607.00
274.07	2610.00
274.54	2617.00
275.01	2612.00
275.48	2608.00
275.94	2603.00
276.41	2610.00
276.88	2603.00
277.35	2616.00
277.82	2607.00
278.29	2610.00
278.76	2612.00
279.22	2615.00
279.69	2612.00
280.16	2614.00
280.63	2607.00
281.10	2611.00
281.57	2616.00
282.04	2611.00
282.50	2607.00
282.97	2608.00
283.44	2606.00
283.91	2608.00
284.38	2607.00
284.85	2607.00
285.31	2608.00
285.78	2606.00
286.25	2601.00
286.72	2608.00
287.19	2601.00
287.65	2607.00
288.12	2606.00
288.59	2609.00
289.06	2612.00
289.53	2599.00
289.99	2606.00
290.46	2607.00
290.93	2606.00
291.40	2611.00
291.87	2607.00
292.33	2611.00
292.80	2610.00
293.27	2601.00
293.74	2610.00
294.21	2613.00
294.67	2600.00
295.14	2604.00
295.61	2611.00
296.08	2604.00
296.54	2613.00
297.01	2606.00
297.48	2613.00
297.95	2598.00
298.42	2605.00
298.88	2609.00
299.35	2609.00
299.82	2606.00
300.29	2607.00
300.75	2611.00
301.22	2608.00
301.69	2610.00
302.16	2615.00
302.62	2603.00
303.09	2607.00
303.56	2610.00
304.03	2603.00
304.49	2608.00
304.96	2612.00
305.43	2612.00
305.90	2617.00
306.36	2616.00
306.83	2625.00
307.30	2614.00
307.76	2619.00
308.23	2618.00
308.70	2630.00
309.17	2623.00
309.63	2624.00
310.10	2637.00
310.57	2638.00
311.03	2639.00
311.50	2636.00
311.97	2664.00
312.44	2651.00
312.90	2655.00
313.37	2654.00
313.84	2667.00
314.30	2667.00
314.77	2661.00
315.24	2672.00
315.70	2671.00
316.17	2669.00
316.64	2677.00
317.10	2694.00
317.57	2692.00
318.04	2696.00
318.50	2697.00
318.97	2700.00
319.44	2714.00
319.90	2702.00
320.37	2709.00
320.84	2719.00
321.30	2724.00
321.77	2717.00
322.24	2720.00
322.70	2715.00
323.17	2731.00
323.64	2734.00
324.10	2732.00
324.57	2742.00
325.04	2750.00
325.50	2761.00
325.97	2769.00
326.44	2785.00
326.90	2811.00
327.37	2812.00
327.84	2792.00
328.30	2803.00
328.77	2825.00
329.23	2823.00
329.70	2849.00
330.17	2840.00
330.63	2835.00
331.10	2827.00
331.56	2833.00
332.03	2826.00
332.50	2826.00
332.96	2835.00
333.43	2819.00
333.90	2816.00
334.36	2854.00
334.83	2821.00
335.29	2854.00
335.76	2827.00
336.22	2841.00
336.69	2818.00
337.16	2810.00
337.62	2836.00
338.09	2832.00
338.55	2843.00
339.02	2855.00
339.49	2866.00
339.95	2879.00
340.42	2884.00
340.88	2878.00
341.35	2878.00
341.81	2878.00
342.28	2870.00
342.75	2894.00
343.21	2899.00
343.68	2879.00
344.14	2889.00
344.61	2844.00
345.07	2873.00
345.54	2889.00
346.00	2913.00
346.47	2886.00
346.93	2904.00
347.40	2929.00
347.87	2894.00
348.33	2906.00
348.80	2914.00
349.26	2911.00
349.73	2923.00
350.19	2932.00
350.66	2962.00
351.12	2937.00
351.59	2962.00
352.05	2955.00
352.52	2947.00
352.98	2938.00
353.45	2966.00
353.91	2976.00
354.38	2977.00
354.84	3009.00
355.31	2963.00
355.77	2965.00
356.24	2960.00
356.70	2946.00
357.17	2914.00
357.63	2914.00
358.10	2883.00
358.56	2895.00
359.03	2899.00
359.49	2982.00
359.96	2998.00
360.42	2974.00
360.89	2965.00
361.35	2955.00
361.82	2960.00
362.28	2972.00
362.75	2983.00
363.21	3015.00
363.67	2977.00
364.14	3018.00
364.60	3060.00
365.07	3013.00
365.53	3049.00
366.00	3078.00
366.46	3102.00
366.93	3101.00
367.39	3094.00
367.86	3087.00
368.32	3058.00
368.78	3083.00
369.25	3111.00
369.71	3119.00
370.18	3124.00
370.64	3089.00
371.11	3075.00
371.57	3095.00
372.03	3111.00
372.50	3054.00
372.96	3036.00
373.43	3038.00
373.89	3011.00
374.35	3022.00
374.82	3042.00
375.28	3039.00
375.75	3126.00
376.21	3147.00
376.67	3146.00
377.14	3164.00
377.60	3192.00
378.07	3215.00
378.53	3244.00
378.99	3168.00
379.46	3164.00
379.92	3135.00
380.39	3124.00
380.85	3158.00
381.31	3167.00
381.78	3102.00
382.24	3028.00
382.70	3006.00
383.17	3004.00
383.63	3017.00
384.09	3036.00
384.56	3094.00
385.02	3151.00
385.48	3122.00
385.95	3158.00
386.41	3140.00
386.88	3184.00
387.34	3173.00
387.80	3167.00
388.27	3188.00
388.73	3182.00
389.19	3247.00
389.66	3272.00
390.12	3328.00
390.58	3331.00
391.05	3323.00
391.51	3352.00
391.97	3331.00
392.43	3271.00
392.90	3171.00
393.36	3089.00
393.82	3050.00
394.29	3156.00
394.75	3267.00
395.21	3315.00
395.68	3347.00
396.14	3337.00
396.60	3249.00
397.07	3196.00
397.53	3240.00
397.99	3405.00
398.45	3533.00
398.92	3622.00
399.38	3688.00
399.84	3692.00
400.31	3687.00
400.77	3733.00
401.23	3727.00
401.69	3822.00
402.16	3847.00
402.62	3810.00
403.08	3772.00
403.54	3780.00
404.01	3780.00
404.47	3808.00
404.93	3771.00
405.39	3786.00
405.86	3790.00
406.32	3767.00
406.78	3798.00
407.24	3784.00
407.71	3837.00
408.17	3841.00
408.63	3860.00
409.09	3875.00
409.56	3911.00
410.02	3831.00
410.48	3825.00
410.94	3853.00
411.40	3927.00
411.87	3966.00
412.33	3995.00
412.79	3976.00
413.25	3986.00
413.71	3935.00
414.18	4015.00
414.64	4028.00
415.10	4053.00
415.56	3965.00
416.02	4006.00
416.49	3983.00
416.95	4055.00
417.41	4053.00
417.87	4038.00
418.33	4025.00
418.80	3973.00
419.26	4054.00
419.72	4070.00
420.18	4048.00
420.64	4023.00
421.10	4062.00
421.57	4101.00
422.03	4074.00
422.49	4061.00
422.95	4000.00
423.41	4025.00
423.87	4085.00
424.34	4027.00
424.80	4072.00
425.26	4107.00
425.72	4091.00
426.18	4035.00
426.64	4047.00
427.10	4128.00
427.57	4014.00
428.03	3950.00
428.49	4069.00
428.95	3989.00
429.41	3876.00
429.87	3875.00
430.33	3829.00
430.79	3835.00
431.26	3868.00
431.72	4028.00
432.18	4169.00
432.64	4231.00
433.10	4139.00
433.56	4233.00
434.02	4166.00
434.48	4131.00
434.94	4231.00
435.40	4288.00
435.87	4320.00
436.33	4349.00
436.79	4357.00
437.25	4325.00
437.71	4264.00
438.17	4260.00
438.63	4254.00
439.09	4233.00
439.55	4314.00
440.01	4401.00
440.47	4412.00
440.93	4401.00
441.39	4447.00
441.85	4530.00
442.32	4549.00
442.78	4551.00
443.24	4539.00
443.70	4571.00
444.16	4598.00
444.62	4582.00
445.08	4589.00
445.54	4612.00
446.00	4561.00
446.46	4620.00
446.92	4657.00
447.38	4680.00
447.84	4739.00
448.30	4741.00
448.76	4694.00
449.22	4767.00
449.68	4741.00
450.14	4850.00
450.60	4872.00
451.06	4878.00
451.52	4853.00
451.98	4804.00
452.44	4743.00
452.90	4755.00
453.36	4766.00
453.82	4790.00
454.28	4793.00
454.74	4892.00
455.20	4827.00
455.66	4825.00
456.12	4907.00
456.58	4925.00
457.04	4876.00
457.50	4931.00
457.96	4934.00
458.42	4890.00
458.88	4899.00
459.34	4903.00
459.80	4925.00
460.26	4950.00
460.72	4941.00
461.18	4967.00
461.64	4997.00
462.10	4993.00
462.55	5053.00
463.01	4976.00
463.47	5026.00
463.93	5028.00
464.39	4953.00
464.85	5012.00
465.31	4983.00
465.77	4985.00
466.23	4982.00
466.69	4993.00
467.15	4925.00
467.61	5002.00
468.07	5067.00
468.52	5027.00
468.98	5000.00
469.44	5015.00
469.90	4977.00
470.36	5026.00
470.82	5011.00
471.28	5027.00
471.74	5072.00
472.20	5126.00
472.66	5132.00
473.11	5107.00
473.57	5127.00
474.03	5134.00
474.49	5152.00
474.95	5161.00
475.41	5156.00
475.87	5167.00
476.33	5114.00
476.78	5141.00
477.24	5147.00
477.70	5194.00
478.16	5268.00
478.62	5221.00
479.08	5214.00
479.54	5241.00
479.99	5238.00
480.45	5287.00
480.91	5301.00
481.37	5220.00
481.83	5288.00
482.29	5245.00
482.74	5252.00
483.20	5231.00
483.66	5317.00
484.12	5233.00
484.58	5185.00
485.04	5143.00
485.49	5080.00
485.95	4958.00
486.41	4914.00
486.87	4953.00
487.33	5080.00
487.78	5153.00
488.24	5127.00
488.70	5193.00
489.16	5249.00
489.62	5254.00
490.07	5338.00
490.53	5335.00
490.99	5302.00
491.45	5286.00
491.90	5250.00
492.36	5277.00
492.82	5205.00
493.28	5306.00
493.74	5339.00
494.19	5369.00
494.65	5304.00
495.11	5404.00
495.57	5415.00
496.02	5383.00
496.48	5358.00
496.94	5425.00
497.40	5304.00
497.85	5382.00
498.31	5328.00
498.77	5299.00
499.23	5322.00
499.68	5344.00
500.14	5386.00
500.60	5277.00
501.06	5226.00
501.51	5287.00
501.97	5255.00
502.43	5273.00
502.88	5255.00
503.34	5300.00
503.80	5259.00
504.26	5361.00
504.71	5368.00
505.17	5424.00
505.63	5396.00
506.08	5517.00
506.54	5390.00
507.00	5404.00
507.45	5393.00
507.91	5320.00
508.37	5428.00
508.82	5418.00
509.28	5421.00
509.74	5450.00
510.19	5386.00
510.65	5457.00
511.11	5494.00
511.56	5506.00
512.02	5521.00
512.48	5392.00
512.93	5393.00
513.39	5363.00
513.85	5436.00
514.30	5407.00
514.76	5349.00
515.22	5411.00
515.67	5402.00
516.13	5313.00
516.59	5240.00
517.04	5181.00
517.50	5147.00
517.95	5201.00
518.41	5215.00
518.87	5279.00
519.32	5385.00
519.78	5443.00
520.24	5431.00
520.69	5486.00
521.15	5449.00
521.60	5518.00
522.06	5485.00
522.52	5458.00
522.97	5507.00
523.43	5493.00
523.88	5530.00
524.34	5598.00
524.80	5620.00
525.25	5561.00
525.71	5502.00
526.16	5486.00
526.62	5426.00
527.07	5385.00
527.53	5402.00
527.99	5546.00
528.44	5649.00
528.90	5669.00
529.35	5644.00
529.81	5665.00
530.26	5724.00
530.72	5646.00
531.17	5808.00
531.63	5682.00
532.09	5588.00
532.54	5579.00
533.00	5592.00
533.45	5517.00
533.91	5618.00
534.36	5666.00
534.82	5767.00
535.27	5737.00
535.73	5736.00
536.18	5725.00
536.64	5753.00
537.09	5750.00
537.55	5616.00
538.00	5693.00
538.46	5703.00
538.91	5707.00
539.37	5601.00
539.82	5567.00
540.28	5540.00
540.73	5656.00
541.19	5643.00
541.64	5590.00
542.10	5671.00
542.55	5617.00
543.01	5720.00
543.46	5655.00
543.92	5823.00
544.37	5709.00
544.83	5727.00
545.28	5697.00
545.74	5756.00
546.19	5765.00
546.64	5746.00
547.10	5665.00
547.55	5720.00
548.01	5747.00
548.46	5685.00
548.92	5770.00
549.37	5751.00
549.83	5797.00
550.28	5747.00
550.73	5811.00
551.19	5802.00
551.64	5808.00
552.10	5784.00
552.55	5798.00
553.00	5821.00
553.46	5790.00
553.91	5754.00
554.37	5836.00
554.82	5847.00
555.28	5877.00
555.73	5867.00
556.18	5793.00
556.64	5713.00
557.09	5762.00
557.54	5716.00
558.00	5717.00
558.45	5710.00
558.91	5676.00
559.36	5605.00
559.81	5689.00
560.27	5713.00
560.72	5807.00
561.17	5745.00
561.63	5734.00
562.08	5740.00
562.54	5750.00
562.99	5796.00
563.44	5842.00
563.90	5759.00
564.35	5831.00
564.80	5785.00
565.26	5714.00
565.71	5706.00
566.16	5754.00
566.62	5733.00
567.07	5818.00
567.52	5756.00
567.98	5801.00
568.43	5767.00
568.88	5718.00
569.34	5716.00
569.79	5707.00
570.24	5691.00
570.69	5725.00
571.15	5680.00
571.60	5749.00
572.05	5780.00
572.51	5762.00
572.96	5828.00
573.41	5781.00
573.86	5856.00
574.32	5809.00
574.77	5793.00
575.22	5737.00
575.68	5751.00
576.13	5764.00
576.58	5751.00
577.03	5785.00
577.49	5769.00
577.94	5762.00
578.39	5768.00
578.84	5720.00
579.30	5775.00
579.75	5815.00
580.20	5794.00
580.65	5816.00
581.11	5838.00
581.56	5867.00
582.01	5910.00
582.46	5941.00
582.92	5903.00
583.37	5884.00
583.82	5930.00
584.27	5933.00
584.72	5887.00
585.18	5962.00
585.63	5857.00
586.08	5784.00
586.53	5860.00
586.98	5811.00
587.44	5924.00
587.89	5847.00
588.34	5775.00
588.79	5657.00
589.24	5533.00
589.70	5569.00
590.15	5558.00
590.60	5712.00
591.05	5817.00
591.50	5749.00
591.96	5794.00
592.41	5776.00
592.86	5756.00
593.31	5795.00
593.76	5768.00
594.21	5752.00
594.66	5744.00
595.12	5723.00
595.57	5804.00
596.02	5814.00
596.47	5838.00
596.92	5812.00
597.37	5793.00
597.82	5828.00
598.28	5850.00
598.73	5825.00
599.18	5800.00
599.63	5782.00
600.08	5875.00
600.53	5790.00
600.98	5854.00
601.43	5823.00
601.88	5802.00
602.34	5757.00
602.79	5853.00
603.24	5814.00
603.69	5893.00
604.14	5912.00
604.59	5911.00
605.04	5905.00
605.49	5851.00
605.94	5885.00
606.39	5862.00
606.84	5897.00
607.30	5864.00
607.75	5885.00
608.20	5924.00
608.65	5893.00
609.10	5856.00
609.55	5891.00
610.00	5806.00
610.45	5871.00
610.90	5920.00
611.35	5855.00
611.80	5844.00
612.25	5891.00
612.70	5843.00
613.15	5839.00
613.60	5809.00
614.05	5852.00
614.50	5848.00
614.95	5811.00
615.40	5852.00
615.85	5793.00
616.30	5744.00
616.75	5737.00
617.20	5755.00
617.65	5794.00
618.10	5830.00
618.55	5860.00
619.00	5848.00
619.45	5845.00
619.90	5864.00
620.35	5923.00
620.80	5956.00
621.25	5901.00
621.70	5890.00
622.15	5848.00
622.60	5830.00
623.05	5845.00
623.50	5885.00
623.95	5809.00
624.40	5782.00
624.85	5791.00
625.30	5790.00
625.75	5783.00
626.20	5789.00
626.65	5814.00
627.10	5794.00
627.55	5749.00
627.99	5749.00
628.44	5709.00
628.89	5757.00
629.34	5827.00
629.79	5760.00
630.24	5779.00
630.69	5692.00
631.14	5786.00
631.59	5794.00
632.04	5767.00
632.49	5788.00
632.94	5879.00
633.38	5914.00
633.83	5798.00
634.28	5812.00
634.73	5817.00
635.18	5902.00
635.63	5849.00
636.08	5868.00
636.53	5843.00
636.97	5911.00
637.42	5960.00
637.87	5948.00
638.32	5909.00
638.77	5951.00
639.22	5934.00
639.67	5908.00
640.11	5886.00
640.56	5963.00
641.01	5911.00
641.46	5920.00
641.91	5901.00
642.36	5951.00
642.81	5876.00
643.25	5949.00
643.70	5882.00
644.15	5952.00
644.60	5913.00
645.05	5937.00
645.49	5872.00
645.94	5849.00
646.39	5853.00
646.84	5933.00
647.29	5799.00
647.73	5825.00
648.18	5819.00
648.63	5829.00
649.08	5722.00
649.53	5714.00
649.97	5691.00
650.42	5762.00
650.87	5863.00
651.32	5880.00
651.77	5868.00
652.21	5859.00
652.66	5900.00
653.11	5917.00
653.56	5864.00
654.00	5867.00
654.45	5884.00
654.90	5734.00
655.35	5680.00
655.79	5574.00
656.24	5396.00
656.69	5376.00
657.14	5469.00
657.58	5632.00
658.03	5781.00
658.48	5832.00
658.92	5862.00
659.37	5881.00
659.82	5824.00
660.27	5815.00
660.71	5863.00
661.16	5935.00
661.61	5874.00
662.05	5963.00
662.50	5982.00
662.95	5895.00
663.39	5832.00
663.84	5846.00
664.29	5815.00
664.74	5920.00
665.18	5916.00
665.63	5899.00
666.08	5839.00
666.52	5898.00
666.97	5865.00
667.42	5908.00
667.86	5896.00
668.31	5845.00
668.76	5946.00
669.20	5921.00
669.65	5942.00
670.09	5878.00
670.54	5869.00
670.99	5868.00
671.43	5866.00
671.88	5804.00
672.33	5846.00
672.77	5874.00
673.22	5892.00
673.66	5790.00
674.11	5850.00
674.56	5850.00
675.00	5823.00
675.45	5807.00
675.90	5865.00
676.34	5809.00
676.79	5819.00
677.23	5805.00
677.68	5850.00
678.12	5844.00
678.57	5828.00
679.02	5846.00
679.46	5878.00
679.91	5763.00
680.35	5849.00
680.80	5872.00
681.25	5792.00
681.69	5840.00
682.14	5850.00
682.58	5840.00
683.03	5809.00
683.47	5788.00
683.92	5784.00
684.36	5748.00
684.81	5765.00
685.25	5807.00
685.70	5763.00
686.15	5694.00
686.59	5405.00
687.04	5000.00
687.48	4884.00
687.93	4937.00
688.37	5208.00
688.82	5269.00
689.26	5220.00
689.71	5220.00
690.15	5257.00
690.60	5348.00
691.04	5419.00
691.49	5454.00
691.93	5478.00
692.38	5437.00
692.82	5552.00
693.27	5458.00
693.71	5464.00
694.16	5404.00
694.60	5402.00
695.04	5451.00
695.49	5445.00
695.93	5497.00
696.38	5578.00
696.82	5600.00
697.27	5604.00
697.71	5636.00
698.16	5621.00
698.60	5568.00
699.04	5529.00
699.49	5478.00
699.93	5520.00
700.38	5565.00
700.82	5473.00
701.27	5480.00
701.71	5484.00
702.15	5407.00
702.60	5434.00
703.04	5495.00
703.49	5578.00
703.93	5534.00
704.37	5515.00
704.82	5651.00
705.26	5558.00
705.71	5528.00
706.15	5560.00
706.59	5613.00
707.04	5579.00
707.48	5599.00
707.93	5601.00
708.37	5527.00
708.81	5529.00
709.26	5566.00
709.70	5530.00
710.14	5616.00
710.59	5564.00
711.03	5550.00
711.47	5539.00
711.92	5532.00
712.36	5502.00
712.80	5536.00
713.25	5529.00
713.69	5504.00
714.13	5547.00
714.58	5477.00
715.02	5470.00
715.46	5449.00
715.91	5439.00
716.35	5349.00
716.79	5222.00
717.24	4991.00
717.68	4888.00
718.12	4841.00
718.57	4753.00
719.01	4700.00
719.45	4744.00
719.89	4667.00
720.34	4691.00
720.78	4837.00
721.22	4971.00
721.66	5170.00
722.11	5201.00
722.55	5137.00
722.99	5114.00
723.44	4971.00
723.88	4873.00
724.32	4843.00
724.76	4895.00
725.21	4808.00
725.65	4897.00
726.09	4896.00
726.53	4870.00
726.97	4915.00
727.42	4936.00
727.86	4828.00
728.30	4948.00
728.74	4928.00
729.19	4889.00
729.63	4889.00
730.07	4962.00
730.51	4939.00
730.95	4913.00
731.40	4984.00
731.84	5035.00
732.28	5075.00
732.72	5229.00
733.16	5189.00
733.61	5205.00
734.05	5295.00
734.49	5227.00
734.93	5228.00
735.37	5218.00
735.81	5213.00
736.26	5221.00
736.70	5238.00
737.14	5219.00
737.58	5248.00
738.02	5222.00
738.46	5234.00
738.90	5210.00
739.35	5216.00
739.79	5189.00
740.23	5212.00
740.67	5274.00
741.11	5228.00
741.55	5200.00
741.99	5250.00
742.44	5215.00
742.88	5209.00
743.32	5262.00
743.76	5250.00
744.20	5258.00
744.64	5233.00
745.08	5178.00
745.52	5279.00
745.96	5317.00
746.40	5260.00
746.84	5270.00
747.29	5300.00
747.73	5308.00
748.17	5272.00
748.61	5271.00
749.05	5248.00
749.49	5280.00
749.93	5253.00
750.37	5296.00
750.81	5274.00
751.25	5254.00
751.69	5251.00
752.13	5355.00
752.57	5274.00
753.01	5231.00
753.45	5230.00
753.89	5323.00
754.33	5325.00
754.77	5264.00
755.21	5264.00
755.65	5267.00
756.09	5248.00
756.53	5265.00
756.97	5195.00
757.41	5253.00
757.85	5219.00
758.29	5222.00
758.73	5143.00
759.17	4996.00
759.61	4359.00
760.05	3557.00
760.49	3166.00
760.93	3073.00
761.37	3258.00
761.81	3714.00
762.25	3988.00
762.69	3776.00
763.13	3619.00
763.57	3624.00
764.01	3727.00
764.45	3887.00
764.89	3995.00
765.33	4198.00
765.77	4329.00
766.21	4465.00
766.65	4626.00
767.09	4739.00
767.53	4882.00
767.96	5008.00
768.40	5010.00
768.84	4968.00
769.28	5039.00
769.72	5083.00
770.16	5100.00
770.60	5116.00
771.04	5119.00
771.48	5118.00
771.92	5139.00
772.35	5183.00
772.79	5130.00
773.23	5154.00
773.67	5140.00
774.11	5152.00
774.55	5127.00
774.99	5003.00
775.43	5102.00
775.86	5081.00
776.30	5099.00
776.74	5136.00
777.18	5131.00
777.62	5078.00
778.06	5081.00
778.50	5109.00
778.93	5111.00
779.37	5071.00
779.81	4979.00
780.25	5037.00
780.69	5013.00
781.12	5039.00
781.56	5075.00
782.00	5048.00
782.44	5061.00
782.88	5051.00
783.32	5047.00
783.75	5039.00
784.19	5020.00
784.63	5039.00
785.07	5030.00
785.50	5023.00
785.94	4996.00
786.38	5003.00
786.82	4920.00
787.26	4920.00
787.69	4939.00
788.13	4918.00
788.57	4889.00
789.01	4978.00
789.44	4827.00
789.88	4862.00
790.32	4892.00
790.76	4886.00
791.19	4854.00
791.63	4831.00
792.07	4843.00
792.51	4795.00
792.94	4767.00
793.38	4803.00
793.82	4872.00
794.25	4817.00
794.69	4797.00
795.13	4895.00
795.56	4846.00
796.00	4800.00
796.44	4704.00
796.88	4743.00
797.31	4774.00
797.75	4835.00
798.19	4779.00
798.62	4787.00
799.06	4802.00
799.50	4753.00
799.93	4717.00
800.37	4754.00
800.81	4797.00
801.24	4743.00
801.68	4704.00
802.12	4699.00
802.55	4689.00
802.99	4670.00
803.43	4676.00
803.86	4659.00
804.30	4671.00
804.73	4646.00
805.17	4706.00
805.61	4694.00
806.04	4700.00
806.48	4709.00
806.92	4747.00
807.35	4730.00
807.79	4717.00
808.22	4701.00
808.66	4651.00
809.10	4630.00
809.53	4575.00
809.97	4599.00
810.40	4584.00
810.84	4544.00
811.27	4526.00
811.71	4525.00
812.15	4584.00
812.58	4512.00
813.02	4449.00
813.45	4360.00
813.89	4358.00
814.32	4289.00
814.76	4270.00
815.19	4221.00
815.63	4223.00
816.07	4145.00
816.50	4063.00
816.94	4124.00
817.37	4173.00
817.81	4130.00
818.24	4096.00
818.68	4201.00
819.11	4217.00
819.55	4178.00
819.98	4179.00
820.42	4306.00
820.85	4382.00
821.29	4355.00
821.72	4331.00
822.16	4234.00
822.59	4027.00
823.03	3883.00
823.46	3973.00
823.90	4160.00
824.33	4305.00
824.77	4344.00
825.20	4348.00
825.63	4340.00
826.07	4318.00
826.50	4369.00
826.94	4360.00
827.37	4238.00
827.81	4147.00
828.24	4147.00
828.68	4204.00
829.11	4211.00
829.54	4182.00
829.98	4257.00
830.41	4279.00
830.85	4306.00
831.28	4242.00
831.71	4292.00
832.15	4250.00
832.58	4288.00
833.02	4304.00
833.45	4250.00
833.88	4258.00
834.32	4308.00
834.75	4312.00
835.19	4323.00
835.62	4325.00
836.05	4278.00
836.49	4277.00
836.92	4342.00
837.35	4358.00
837.79	4433.00
838.22	4350.00
838.66	4379.00
839.09	4401.00
839.52	4428.00
839.96	4427.00
840.39	4405.00
840.82	4368.00
841.26	4369.00
841.69	4339.00
842.12	4439.00
842.56	4379.00
842.99	4339.00
843.42	4343.00
843.85	4361.00
844.29	4378.00
844.72	4339.00
845.15	4383.00
845.59	4477.00
846.02	4447.00
846.45	4440.00
846.88	4359.00
847.32	4404.00
847.75	4383.00
848.18	4404.00
848.62	4365.00
849.05	4320.00
849.48	4256.00
849.91	4194.00
850.35	4251.00
850.78	4359.00
851.21	4332.00
851.64	4356.00
852.08	4306.00
852.51	4422.00
852.94	4383.00
853.37	4309.00
853.80	4141.00
854.24	4006.00
854.67	4096.00
855.10	4216.00
855.53	4205.00
855.97	4296.00
856.40	4307.00
856.83	4333.00
857.26	4298.00
857.69	4347.00
858.13	4343.00
858.56	4319.00
858.99	4336.00
859.42	4372.00
859.85	4339.00
860.28	4350.00
860.72	4329.00
861.15	4302.00
861.58	4339.00
862.01	4269.00
862.44	4297.00
862.87	4316.00
863.30	4279.00
863.74	4281.00
864.17	4324.00
864.60	4242.00
865.03	4310.00
865.46	4237.00
865.89	4089.00
866.32	4020.00
866.75	4109.00
867.19	4263.00
867.62	4268.00
868.05	4311.00
868.48	4243.00
868.91	4279.00
869.34	4285.00
869.77	4271.00
870.20	4261.00
870.63	4230.00
871.06	4234.00
871.49	4232.00
871.93	4236.00
872.36	4266.00
872.79	4241.00
873.22	4246.00
873.65	4265.00
874.08	4271.00
874.51	4241.00
874.94	4205.00
875.37	4238.00
875.80	4278.00
876.23	4180.00
876.66	4193.00
877.09	4212.00
877.52	4227.00
877.95	4218.00
878.38	4193.00
878.81	4195.00
879.24	4163.00
879.67	4200.00
880.10	4176.00
880.53	4124.00
880.96	4184.00
881.39	4221.00
881.82	4201.00
882.25	4194.00
882.68	4194.00
883.11	4279.00
883.54	4226.00
883.97	4242.00
884.40	4266.00
884.83	4194.00
885.26	4146.00
885.69	4138.00
886.12	4107.00
886.55	4127.00
886.98	4163.00
887.40	4159.00
887.83	4168.00
888.26	4162.00
888.69	4196.00
889.12	4174.00
889.55	4191.00
889.98	4183.00
890.41	4132.00
890.84	4164.00
891.27	4144.00
891.70	4174.00
892.12	4109.00
892.55	4106.00
892.98	4083.00
893.41	4077.00
893.84	4036.00
894.27	4012.00
894.70	3923.00
895.13	3866.00
895.55	3866.00
895.98	3874.00
896.41	3779.00
896.84	3789.00
897.27	3779.00
897.70	3836.00
898.13	3818.00
898.55	3630.00
898.98	3600.00
899.41	3792.00
899.84	3752.00
900.27	3685.00
900.70	3736.00
901.12	3675.00
901.55	3705.00
901.98	3724.00
902.41	3725.00
902.84	3808.00
903.26	3912.00
903.69	3891.00
904.12	3881.00
904.55	3936.00
904.97	3863.00
905.40	3877.00
905.83	3809.00
906.26	3745.00
906.69	3695.00
907.11	3677.00
907.54	3705.00
907.97	3685.00
908.40	3665.00
908.82	3649.00
909.25	3677.00
909.68	3663.00
910.10	3650.00
910.53	3658.00
910.96	3723.00
911.39	3696.00
911.81	3685.00
912.24	3696.00
912.67	3580.00
913.09	3523.00
913.52	3627.00
913.95	3697.00
914.38	3678.00
914.80	3554.00
915.23	3560.00
915.66	3629.00
916.08	3722.00
916.51	3670.00
916.94	3568.00
917.36	3539.00
917.79	3644.00
918.22	3674.00
918.64	3715.00
919.07	3734.00
919.50	3726.00
919.92	3772.00
920.35	3783.00
920.78	3710.00
921.20	3681.00
921.63	3695.00
922.05	3676.00
922.48	3662.00
922.91	3654.00
923.33	3607.00
923.76	3659.00
924.18	3648.00
924.61	3641.00
925.04	3617.00
925.46	3611.00
925.89	3639.00
926.31	3644.00
926.74	3589.00
927.17	3475.00
927.59	3418.00
928.02	3368.00
928.44	3357.00
928.87	3316.00
929.29	3239.00
929.72	3194.00
930.15	3186.00
930.57	3141.00
931.00	3068.00
931.42	3010.00
931.85	2977.00
932.27	2946.00
932.70	2935.00
933.12	2853.00
933.55	2859.00
933.97	2845.00
934.40	2938.00
934.82	2940.00
935.25	2861.00
935.67	2887.00
936.10	2893.00
936.52	2840.00
936.95	2880.00
937.37	2819.00
937.80	2894.00
938.22	2937.00
938.65	3029.00
939.07	3075.00
939.50	2974.00
939.92	2962.00
940.35	2927.00
940.77	2910.00
941.19	2937.00
941.62	2940.00
942.04	2896.00
942.47	2840.00
942.89	2916.00
943.32	2849.00
943.74	2822.00
944.16	2877.00
944.59	2918.00
945.01	2873.00
945.44	2848.00
945.86	2875.00
946.29	2889.00
946.71	2909.00
947.13	2884.00
947.56	2889.00
947.98	2953.00
948.40	2974.00
948.83	2893.00
949.25	2849.00
949.68	2904.00
950.10	3020.00
950.52	3004.00
950.95	2979.00
951.37	2887.00
951.79	2916.00
952.22	2934.00
952.64	2994.00
953.06	3011.00
953.49	2991.00
953.91	2958.00
954.33	2983.00
954.76	2945.00
955.18	2987.00
955.60	2998.00
956.03	2975.00
956.45	3046.00
956.87	3112.00
957.30	3087.00
957.72	3070.00
958.14	3004.00
958.56	2973.00
958.99	3029.00
959.41	3091.00
959.83	3070.00
960.26	3122.00
960.68	3157.00
961.10	3117.00
961.52	3076.00
961.95	3095.00
962.37	3176.00
962.79	3154.00
963.21	3142.00
963.64	3165.00
964.06	3173.00
964.48	3175.00
964.90	3209.00
965.32	3158.00
965.75	3161.00
966.17	3206.00
966.59	3310.00
967.01	3341.00
967.44	3328.00
967.86	3324.00
968.28	3340.00
968.70	3381.00
969.12	3338.00
969.54	3352.00
969.97	3367.00
970.39	3361.00
970.81	3357.00
971.23	3323.00
971.65	3307.00
972.07	3313.00
972.50	3316.00
972.92	3233.00
973.34	3307.00
973.76	3299.00
974.18	3286.00
974.60	3281.00
975.02	3272.00
975.45	3247.00
975.87	3290.00
976.29	3306.00
976.71	3316.00
977.13	3329.00
977.55	3279.00
977.97	3291.00
978.39	3305.00
978.81	3283.00
979.24	3321.00
979.66	3358.00
980.08	3361.00
980.50	3364.00
980.92	3351.00
981.34	3320.00
981.76	3328.00
982.18	3347.00
982.60	3362.00
983.02	3370.00
983.44	3352.00
983.86	3337.00
984.28	3373.00
984.70	3354.00
985.12	3350.00
985.54	3356.00
985.96	3324.00
986.38	3325.00
986.80	3347.00
987.23	3356.00
987.65	3373.00
988.07	3338.00
988.49	3344.00
988.91	3360.00
989.33	3298.00
989.74	3341.00
990.16	3358.00
990.58	3353.00
991.00	3330.00
991.42	3363.00
991.84	3321.00
992.26	3321.00
992.68	3353.00
993.10	3328.00
993.52	3329.00
993.94	3322.00
994.36	3347.00
994.78	3279.00
995.20	3320.00
995.62	3316.00
996.04	3321.00
996.46	3329.00
996.88	3321.00
997.30	3297.00
997.71	3305.00
998.13	3352.00
998.55	3333.00
998.97	3359.00
999.39	3343.00
999.81	3344.00
1000.23	3346.00
1000.65	3331.00
1001.07	3329.00
1001.49	3316.00
1001.90	3350.00
1002.32	3334.00
1002.74	3329.00
1003.16	3295.00
1003.58	3299.00
1004.00	3296.00
1004.42	3315.00
1004.83	3293.00
1005.25	3307.00
1005.67	3300.00
1006.09	3291.00
1006.51	3319.00
1006.92	3286.00
1007.34	3266.00
1007.76	3282.00
1008.18	3289.00
1008.60	3282.00
1009.02	3273.00
1009.43	3276.00
1009.85	3263.00
1010.27	3269.00
1010.69	3266.00
1011.10	3249.00
1011.52	3246.00
1011.94	3270.00
1012.36	3253.00
1012.78	3278.00
1013.19	3232.00
1013.61	3231.00
1014.03	3225.00
1014.45	3207.00
1014.86	3221.00
1015.28	3226.00
1015.70	3229.00
1016.12	3213.00
1016.53	3200.00
1016.95	3210.00
1017.37	3171.00
1017.78	3154.00
1018.20	3172.00
1018.62	3164.00
1019.03	3141.00
1019.45	3166.00
1019.87	3156.00
1020.29	3126.00
1020.70	3133.00
1021.12	3146.00
1021.54	3141.00
1021.95	3143.00
1022.37	3116.00
1022.79	3114.00
1023.20	3123.00
1023.62	3102.00
1024.04	3096.00
1024.45	3110.00
1024.87	3101.00
1025.28	3101.00
1025.70	3106.00
1026.12	3082.00
1026.53	3082.00
1026.95	3073.00
1027.37	3080.00
1027.78	3072.00
1028.20	3062.00
1028.61	3055.00
1029.03	3049.00
1029.45	3053.00
1029.86	3026.00
1030.28	3044.00
1030.69	3056.00
1031.11	3026.00
1031.53	3010.00
1031.94	3010.00
1032.36	3040.00
1032.77	3016.00
1033.19	3018.00
1033.60	3013.00
1034.02	2989.00
1034.43	2994.00
1034.85	3014.00
1035.27	2969.00
1035.68	2979.00
1036.10	2996.00
1036.51	2989.00
1036.93	2989.00
1037.34	2993.00
1037.76	2954.00
1038.17	2968.00
1038.59	2959.00
1039.00	2953.00
1039.42	2953.00
1039.83	2958.00
1040.25	2949.00
1040.66	2936.00
1041.08	2944.00
1041.49	2927.00
1041.91	2951.00
1042.32	2947.00
1042.73	2926.00
1043.15	2923.00
1043.56	2909.00
1043.98	2893.00
1044.39	2915.00
1044.81	2902.00
1045.22	2890.00
1045.64	2904.00
1046.05	2899.00
1046.46	2916.00
1046.88	2890.00
1047.29	2868.00
1047.71	2886.00
1048.12	2879.00
1048.53	2860.00
1048.95	2874.00
1049.36	2843.00
1049.78	2852.00
1050.19	2854.00
1050.60	2861.00
1051.02	2844.00
1051.43	2837.00
1051.85	2852.00
1052.26	2838.00
1052.67	2853.00
1053.09	2842.00
1053.50	2844.00
1053.91	2837.00
1054.33	2822.00
1054.74	2829.00
1055.15	2806.00
1055.57	2820.00
1055.98	2804.00
1056.39	2804.00
1056.81	2803.00
1057.22	2791.00
1057.63	2812.00
1058.05	2786.00
1058.46	2796.00
1058.87	2783.00
1059.28	2797.00
1059.70	2774.00
1060.11	2800.00
1060.52	2769.00
1060.94	2779.00
1061.35	2778.00
1061.76	2769.00
1062.17	2779.00
1062.59	2768.00
1063.00	2784.00
1063.41	2764.00
1063.82	2765.00
1064.24	2765.00
1064.65	2756.00
1065.06	2751.00
1065.47	2750.00
1065.89	2751.00
1066.30	2750.00
1066.71	2757.00
1067.12	2752.00
1067.53	2739.00
1067.95	2730.00
1068.36	2727.00
1068.77	2742.00
1069.18	2734.00
1069.59	2727.00
1070.00	2743.00
1070.42	2725.00
1070.83	2726.00
1071.24	2735.00
1071.65	2731.00
1072.06	2728.00
1072.47	2717.00
1072.89	2722.00
1073.30	2725.00
1073.71	2718.00
1074.12	2716.00
1074.53	2726.00
1074.94	2701.00
1075.35	2718.00
1075.77	2700.00
1076.18	2701.00
1076.59	2702.00
1077.00	2705.00
1077.41	2705.00
1077.82	2702.00
1078.23	2702.00
1078.64	2691.00
1079.05	2694.00
1079.46	2693.00
1079.87	2694.00
1080.29	2688.00
1080.70	2680.00
1081.11	2701.00
1081.52	2694.00
1081.93	2691.00
1082.34	2677.00
1082.75	2683.00
1083.16	2670.00
1083.57	2686.00
1083.98	2679.00
1084.39	2673.00
1084.80	2667.00
1085.21	2665.00
1085.62	2667.00
1086.03	2692.00
1086.44	2670.00
1086.85	2659.00
1087.26	2665.00
1087.67	2667.00
1088.08	2666.00
1088.49	2655.00
1088.90	2668.00
1089.31	2664.00
1089.72	2663.00
1090.13	2650.00
1090.54	2656.00
1090.95	2649.00
1091.36	2655.00
1091.77	2644.00
1092.18	2662.00
1092.59	2656.00
1093.00	2648.00
1093.40	2644.00
1093.81	2647.00
1094.22	2642.00
1094.63	2638.00
1095.04	2644.00
1095.45	2636.00
1095.86	2644.00
1096.27	2638.00
1096.68	2638.00
1097.09	2649.00
1097.50	2631.00
1097.90	2634.00
1098.31	2633.00
1098.72	2636.00
1099.13	2617.00
1099.54	2628.00
1099.95	2627.00
1100.36	2625.00
1100.76	2619.00
1101.17	2632.00
1101.58	2629.00
1101.99	2624.00
1102.40	2614.00
1102.81	2624.00
1103.22	2623.00
1103.62	2619.00
1104.03	2621.00
1104.44	2616.00
1104.85	2615.00
1105.26	2620.00
1105.66	2612.00
1106.07	2604.00
1106.48	2614.00
1106.89	2614.00
1107.30	2613.00
1107.70	2609.00
1108.11	2616.00
1108.52	2617.00
1108.93	2608.00
1109.33	2603.00
1109.74	2608.00
1110.15	2608.00
1110.56	2603.00
1110.96	2611.00
1111.37	2610.00
1111.78	2618.00
1112.19	2605.00
1112.59	2609.00
1113.00	2611.00
1113.41	2605.00
1113.81	2611.00
1114.22	2605.00
1114.63	2575.00
1115.03	2579.00
1115.44	2572.00
1115.85	2581.00
>>>>>End Processed Spectral Data<<<<<
