SpectraSuite Data File
++++++++++++++++++++++++++++++++++++
Date: Thu Aug 05 10:45:31 EEST 2021
User: CanSEE
Dark Spectrum Present: No
Reference Spectrum Present: No
Number of Sampled Component Spectra: 1
Spectrometers: MAYP112785
Integration Time (usec): 10000 (MAYP112785)
Spectra Averaged: 1 (MAYP112785)
Boxcar Smoothing: 0 (MAYP112785)
Correct for Electrical Dark: No (MAYP112785)
Strobe/Lamp Enabled: No (MAYP112785)
Correct for Detector Non-linearity: No (MAYP112785)
Correct for Stray Light: No (MAYP112785)
Number of Pixels in Processed Spectrum: 2068
>>>>>Begin Processed Spectral Data<<<<<
198.35	3481.00
198.82	2486.00
199.30	2594.00
199.77	2579.00
200.24	2598.00
200.71	2599.00
201.18	2604.00
201.65	2618.00
202.13	2613.00
202.60	2611.00
203.07	2620.00
203.54	2603.00
204.01	2601.00
204.48	2607.00
204.96	2605.00
205.43	2605.00
205.90	2605.00
206.37	2611.00
206.84	2602.00
207.31	2599.00
207.78	2610.00
208.26	2591.00
208.73	2613.00
209.20	2605.00
209.67	2607.00
210.14	2604.00
210.61	2607.00
211.08	2615.00
211.56	2615.00
212.03	2602.00
212.50	2606.00
212.97	2603.00
213.44	2613.00
213.91	2607.00
214.38	2605.00
214.85	2603.00
215.33	2613.00
215.80	2604.00
216.27	2611.00
216.74	2611.00
217.21	2604.00
217.68	2609.00
218.15	2601.00
218.62	2610.00
219.09	2601.00
219.57	2610.00
220.04	2602.00
220.51	2605.00
220.98	2608.00
221.45	2598.00
221.92	2608.00
222.39	2612.00
222.86	2606.00
223.33	2606.00
223.80	2608.00
224.27	2607.00
224.74	2607.00
225.22	2611.00
225.69	2604.00
226.16	2605.00
226.63	2606.00
227.10	2604.00
227.57	2603.00
228.04	2603.00
228.51	2607.00
228.98	2612.00
229.45	2613.00
229.92	2608.00
230.39	2613.00
230.86	2607.00
231.33	2616.00
231.80	2604.00
232.27	2605.00
232.75	2606.00
233.22	2616.00
233.69	2604.00
234.16	2604.00
234.63	2609.00
235.10	2606.00
235.57	2602.00
236.04	2615.00
236.51	2610.00
236.98	2602.00
237.45	2611.00
237.92	2612.00
238.39	2599.00
238.86	2605.00
239.33	2670.00
239.80	2603.00
240.27	2614.00
240.74	2605.00
241.21	2607.00
241.68	2605.00
242.15	2609.00
242.62	2600.00
243.09	2607.00
243.56	2611.00
244.03	2607.00
244.50	2609.00
244.97	2609.00
245.44	2616.00
245.91	2613.00
246.38	2601.00
246.85	2600.00
247.32	2607.00
247.79	2606.00
248.26	2614.00
248.73	2600.00
249.20	2600.00
249.67	2609.00
250.14	2605.00
250.61	2604.00
251.08	2604.00
251.55	2600.00
252.02	2599.00
252.49	2603.00
252.96	2609.00
253.43	2605.00
253.90	2603.00
254.37	2610.00
254.84	2613.00
255.31	2603.00
255.77	2603.00
256.24	2602.00
256.71	2611.00
257.18	2605.00
257.65	2613.00
258.12	2609.00
258.59	2605.00
259.06	2603.00
259.53	2613.00
260.00	2600.00
260.47	2603.00
260.94	2615.00
261.41	2613.00
261.88	2603.00
262.35	2613.00
262.81	2607.00
263.28	2603.00
263.75	2608.00
264.22	2608.00
264.69	2613.00
265.16	2612.00
265.63	2616.00
266.10	2611.00
266.57	2604.00
267.04	2608.00
267.51	2609.00
267.97	2611.00
268.44	2607.00
268.91	2614.00
269.38	2612.00
269.85	2613.00
270.32	2612.00
270.79	2612.00
271.26	2596.00
271.73	2607.00
272.19	2611.00
272.66	2606.00
273.13	2604.00
273.60	2606.00
274.07	2614.00
274.54	2601.00
275.01	2618.00
275.48	2617.00
275.94	2608.00
276.41	2610.00
276.88	2605.00
277.35	2612.00
277.82	2609.00
278.29	2607.00
278.76	2605.00
279.22	2604.00
279.69	2601.00
280.16	2610.00
280.63	2602.00
281.10	2609.00
281.57	2607.00
282.04	2608.00
282.50	2604.00
282.97	2607.00
283.44	2607.00
283.91	2598.00
284.38	2608.00
284.85	2607.00
285.31	2602.00
285.78	2600.00
286.25	2600.00
286.72	2620.00
287.19	2608.00
287.65	2611.00
288.12	2609.00
288.59	2608.00
289.06	2602.00
289.53	2608.00
289.99	2615.00
290.46	2606.00
290.93	2601.00
291.40	2612.00
291.87	2597.00
292.33	2605.00
292.80	2609.00
293.27	2603.00
293.74	2608.00
294.21	2604.00
294.67	2604.00
295.14	2604.00
295.61	2605.00
296.08	2612.00
296.54	2608.00
297.01	2605.00
297.48	2606.00
297.95	2608.00
298.42	2609.00
298.88	2608.00
299.35	2609.00
299.82	2608.00
300.29	2606.00
300.75	2608.00
301.22	2607.00
301.69	2610.00
302.16	2607.00
302.62	2607.00
303.09	2604.00
303.56	2619.00
304.03	2613.00
304.49	2612.00
304.96	2615.00
305.43	2622.00
305.90	2617.00
306.36	2614.00
306.83	2619.00
307.30	2624.00
307.76	2628.00
308.23	2618.00
308.70	2624.00
309.17	2629.00
309.63	2622.00
310.10	2628.00
310.57	2637.00
311.03	2632.00
311.50	2652.00
311.97	2646.00
312.44	2659.00
312.90	2649.00
313.37	2660.00
313.84	2668.00
314.30	2663.00
314.77	2663.00
315.24	2668.00
315.70	2669.00
316.17	2666.00
316.64	2698.00
317.10	2691.00
317.57	2690.00
318.04	2694.00
318.50	2693.00
318.97	2714.00
319.44	2704.00
319.90	2705.00
320.37	2709.00
320.84	2716.00
321.30	2718.00
321.77	2724.00
322.24	2709.00
322.70	2728.00
323.17	2721.00
323.64	2723.00
324.10	2745.00
324.57	2763.00
325.04	2765.00
325.50	2769.00
325.97	2796.00
326.44	2804.00
326.90	2829.00
327.37	2804.00
327.84	2797.00
328.30	2804.00
328.77	2797.00
329.23	2813.00
329.70	2841.00
330.17	2847.00
330.63	2837.00
331.10	2820.00
331.56	2818.00
332.03	2831.00
332.50	2821.00
332.96	2830.00
333.43	2818.00
333.90	2827.00
334.36	2829.00
334.83	2839.00
335.29	2838.00
335.76	2835.00
336.22	2841.00
336.69	2819.00
337.16	2835.00
337.62	2834.00
338.09	2837.00
338.55	2848.00
339.02	2873.00
339.49	2862.00
339.95	2893.00
340.42	2874.00
340.88	2891.00
341.35	2879.00
341.81	2888.00
342.28	2880.00
342.75	2889.00
343.21	2880.00
343.68	2872.00
344.14	2855.00
344.61	2848.00
345.07	2855.00
345.54	2898.00
346.00	2893.00
346.47	2909.00
346.93	2908.00
347.40	2920.00
347.87	2909.00
348.33	2907.00
348.80	2909.00
349.26	2918.00
349.73	2928.00
350.19	2947.00
350.66	2956.00
351.12	2943.00
351.59	2953.00
352.05	2931.00
352.52	2952.00
352.98	2935.00
353.45	2944.00
353.91	2993.00
354.38	2988.00
354.84	2990.00
355.31	2996.00
355.77	2974.00
356.24	2952.00
356.70	2958.00
357.17	2916.00
357.63	2900.00
358.10	2913.00
358.56	2878.00
359.03	2906.00
359.49	2954.00
359.96	2981.00
360.42	3003.00
360.89	2956.00
361.35	2959.00
361.82	2968.00
362.28	2972.00
362.75	2995.00
363.21	3002.00
363.67	3004.00
364.14	3021.00
364.60	2987.00
365.07	3012.00
365.53	3059.00
366.00	3069.00
366.46	3097.00
366.93	3063.00
367.39	3067.00
367.86	3102.00
368.32	3064.00
368.78	3056.00
369.25	3084.00
369.71	3129.00
370.18	3109.00
370.64	3107.00
371.11	3064.00
371.57	3091.00
372.03	3099.00
372.50	3059.00
372.96	3040.00
373.43	3040.00
373.89	3012.00
374.35	3038.00
374.82	3035.00
375.28	3025.00
375.75	3102.00
376.21	3123.00
376.67	3111.00
377.14	3133.00
377.60	3177.00
378.07	3242.00
378.53	3234.00
378.99	3194.00
379.46	3159.00
379.92	3139.00
380.39	3147.00
380.85	3198.00
381.31	3163.00
381.78	3121.00
382.24	3069.00
382.70	3016.00
383.17	2989.00
383.63	3009.00
384.09	3053.00
384.56	3102.00
385.02	3168.00
385.48	3138.00
385.95	3147.00
386.41	3143.00
386.88	3159.00
387.34	3185.00
387.80	3146.00
388.27	3166.00
388.73	3191.00
389.19	3209.00
389.66	3277.00
390.12	3321.00
390.58	3314.00
391.05	3316.00
391.51	3337.00
391.97	3287.00
392.43	3215.00
392.90	3144.00
393.36	3098.00
393.82	3076.00
394.29	3154.00
394.75	3274.00
395.21	3314.00
395.68	3319.00
396.14	3321.00
396.60	3249.00
397.07	3177.00
397.53	3226.00
397.99	3429.00
398.45	3571.00
398.92	3639.00
399.38	3661.00
399.84	3735.00
400.31	3731.00
400.77	3746.00
401.23	3766.00
401.69	3779.00
402.16	3807.00
402.62	3845.00
403.08	3819.00
403.54	3776.00
404.01	3793.00
404.47	3782.00
404.93	3737.00
405.39	3769.00
405.86	3789.00
406.32	3720.00
406.78	3800.00
407.24	3811.00
407.71	3840.00
408.17	3814.00
408.63	3894.00
409.09	3863.00
409.56	3876.00
410.02	3825.00
410.48	3832.00
410.94	3878.00
411.40	3941.00
411.87	3970.00
412.33	3982.00
412.79	3987.00
413.25	3988.00
413.71	3954.00
414.18	4021.00
414.64	3991.00
415.10	4010.00
415.56	4015.00
416.02	4022.00
416.49	4033.00
416.95	4009.00
417.41	3993.00
417.87	3984.00
418.33	3986.00
418.80	4002.00
419.26	3973.00
419.72	4042.00
420.18	4023.00
420.64	4023.00
421.10	4081.00
421.57	4104.00
422.03	4070.00
422.49	4088.00
422.95	3998.00
423.41	4034.00
423.87	4053.00
424.34	4071.00
424.80	4088.00
425.26	4058.00
425.72	4035.00
426.18	4051.00
426.64	4030.00
427.10	4049.00
427.57	4004.00
428.03	3997.00
428.49	4041.00
428.95	4004.00
429.41	3907.00
429.87	3875.00
430.33	3833.00
430.79	3803.00
431.26	3877.00
431.72	4033.00
432.18	4208.00
432.64	4183.00
433.10	4167.00
433.56	4222.00
434.02	4247.00
434.48	4144.00
434.94	4236.00
435.40	4306.00
435.87	4338.00
436.33	4345.00
436.79	4346.00
437.25	4332.00
437.71	4316.00
438.17	4282.00
438.63	4231.00
439.09	4235.00
439.55	4316.00
440.01	4353.00
440.47	4410.00
440.93	4431.00
441.39	4455.00
441.85	4514.00
442.32	4538.00
442.78	4548.00
443.24	4611.00
443.70	4543.00
444.16	4563.00
444.62	4537.00
445.08	4605.00
445.54	4571.00
446.00	4558.00
446.46	4532.00
446.92	4634.00
447.38	4668.00
447.84	4717.00
448.30	4683.00
448.76	4768.00
449.22	4763.00
449.68	4827.00
450.14	4837.00
450.60	4900.00
451.06	4878.00
451.52	4871.00
451.98	4793.00
452.44	4754.00
452.90	4777.00
453.36	4758.00
453.82	4745.00
454.28	4825.00
454.74	4864.00
455.20	4862.00
455.66	4818.00
456.12	4891.00
456.58	4911.00
457.04	4891.00
457.50	4881.00
457.96	4932.00
458.42	4918.00
458.88	4827.00
459.34	4870.00
459.80	4916.00
460.26	4955.00
460.72	4946.00
461.18	4952.00
461.64	5054.00
462.10	5031.00
462.55	5062.00
463.01	5041.00
463.47	5029.00
463.93	4941.00
464.39	4966.00
464.85	5019.00
465.31	5005.00
465.77	4937.00
466.23	5047.00
466.69	4973.00
467.15	4953.00
467.61	4990.00
468.07	5003.00
468.52	5006.00
468.98	5030.00
469.44	5017.00
469.90	4999.00
470.36	5008.00
470.82	5009.00
471.28	5036.00
471.74	5059.00
472.20	5113.00
472.66	5131.00
473.11	5073.00
473.57	5145.00
474.03	5147.00
474.49	5129.00
474.95	5134.00
475.41	5191.00
475.87	5141.00
476.33	5145.00
476.78	5113.00
477.24	5171.00
477.70	5211.00
478.16	5218.00
478.62	5246.00
479.08	5207.00
479.54	5237.00
479.99	5266.00
480.45	5284.00
480.91	5224.00
481.37	5339.00
481.83	5302.00
482.29	5263.00
482.74	5301.00
483.20	5261.00
483.66	5251.00
484.12	5254.00
484.58	5274.00
485.04	5127.00
485.49	5025.00
485.95	4959.00
486.41	4917.00
486.87	4973.00
487.33	5097.00
487.78	5091.00
488.24	5139.00
488.70	5257.00
489.16	5223.00
489.62	5265.00
490.07	5310.00
490.53	5320.00
490.99	5272.00
491.45	5208.00
491.90	5239.00
492.36	5266.00
492.82	5229.00
493.28	5302.00
493.74	5321.00
494.19	5317.00
494.65	5323.00
495.11	5415.00
495.57	5465.00
496.02	5358.00
496.48	5375.00
496.94	5429.00
497.40	5354.00
497.85	5375.00
498.31	5375.00
498.77	5380.00
499.23	5254.00
499.68	5272.00
500.14	5328.00
500.60	5283.00
501.06	5203.00
501.51	5237.00
501.97	5225.00
502.43	5294.00
502.88	5340.00
503.34	5294.00
503.80	5354.00
504.26	5265.00
504.71	5341.00
505.17	5409.00
505.63	5409.00
506.08	5384.00
506.54	5372.00
507.00	5441.00
507.45	5334.00
507.91	5385.00
508.37	5390.00
508.82	5432.00
509.28	5354.00
509.74	5433.00
510.19	5421.00
510.65	5438.00
511.11	5454.00
511.56	5469.00
512.02	5465.00
512.48	5447.00
512.93	5411.00
513.39	5376.00
513.85	5376.00
514.30	5390.00
514.76	5391.00
515.22	5440.00
515.67	5386.00
516.13	5340.00
516.59	5215.00
517.04	5212.00
517.50	5161.00
517.95	5134.00
518.41	5259.00
518.87	5236.00
519.32	5373.00
519.78	5371.00
520.24	5498.00
520.69	5453.00
521.15	5506.00
521.60	5421.00
522.06	5497.00
522.52	5477.00
522.97	5490.00
523.43	5518.00
523.88	5578.00
524.34	5619.00
524.80	5613.00
525.25	5590.00
525.71	5550.00
526.16	5478.00
526.62	5393.00
527.07	5366.00
527.53	5355.00
527.99	5540.00
528.44	5650.00
528.90	5662.00
529.35	5667.00
529.81	5708.00
530.26	5675.00
530.72	5698.00
531.17	5720.00
531.63	5703.00
532.09	5548.00
532.54	5603.00
533.00	5590.00
533.45	5534.00
533.91	5625.00
534.36	5691.00
534.82	5678.00
535.27	5731.00
535.73	5734.00
536.18	5748.00
536.64	5691.00
537.09	5655.00
537.55	5635.00
538.00	5739.00
538.46	5719.00
538.91	5685.00
539.37	5668.00
539.82	5639.00
540.28	5565.00
540.73	5610.00
541.19	5616.00
541.64	5663.00
542.10	5672.00
542.55	5645.00
543.01	5731.00
543.46	5687.00
543.92	5685.00
544.37	5700.00
544.83	5704.00
545.28	5734.00
545.74	5780.00
546.19	5788.00
546.64	5695.00
547.10	5746.00
547.55	5735.00
548.01	5690.00
548.46	5748.00
548.92	5718.00
549.37	5773.00
549.83	5779.00
550.28	5809.00
550.73	5757.00
551.19	5797.00
551.64	5806.00
552.10	5776.00
552.55	5748.00
553.00	5813.00
553.46	5769.00
553.91	5759.00
554.37	5816.00
554.82	5857.00
555.28	5839.00
555.73	5793.00
556.18	5821.00
556.64	5798.00
557.09	5722.00
557.54	5698.00
558.00	5779.00
558.45	5678.00
558.91	5731.00
559.36	5667.00
559.81	5718.00
560.27	5780.00
560.72	5788.00
561.17	5753.00
561.63	5766.00
562.08	5795.00
562.54	5823.00
562.99	5787.00
563.44	5793.00
563.90	5776.00
564.35	5767.00
564.80	5777.00
565.26	5732.00
565.71	5717.00
566.16	5710.00
566.62	5697.00
567.07	5726.00
567.52	5804.00
567.98	5734.00
568.43	5726.00
568.88	5755.00
569.34	5682.00
569.79	5784.00
570.24	5721.00
570.69	5720.00
571.15	5693.00
571.60	5745.00
572.05	5742.00
572.51	5777.00
572.96	5813.00
573.41	5786.00
573.86	5807.00
574.32	5809.00
574.77	5718.00
575.22	5758.00
575.68	5766.00
576.13	5730.00
576.58	5771.00
577.03	5793.00
577.49	5773.00
577.94	5768.00
578.39	5694.00
578.84	5742.00
579.30	5816.00
579.75	5818.00
580.20	5791.00
580.65	5859.00
581.11	5830.00
581.56	5842.00
582.01	5885.00
582.46	5924.00
582.92	5942.00
583.37	5905.00
583.82	5915.00
584.27	5927.00
584.72	5850.00
585.18	5873.00
585.63	5888.00
586.08	5830.00
586.53	5866.00
586.98	5909.00
587.44	5905.00
587.89	5831.00
588.34	5710.00
588.79	5598.00
589.24	5540.00
589.70	5502.00
590.15	5623.00
590.60	5670.00
591.05	5785.00
591.50	5740.00
591.96	5831.00
592.41	5759.00
592.86	5807.00
593.31	5773.00
593.76	5776.00
594.21	5776.00
594.66	5740.00
595.12	5729.00
595.57	5772.00
596.02	5857.00
596.47	5855.00
596.92	5836.00
597.37	5772.00
597.82	5807.00
598.28	5823.00
598.73	5761.00
599.18	5801.00
599.63	5812.00
600.08	5827.00
600.53	5822.00
600.98	5765.00
601.43	5755.00
601.88	5719.00
602.34	5784.00
602.79	5758.00
603.24	5851.00
603.69	5890.00
604.14	5885.00
604.59	5937.00
605.04	5929.00
605.49	5901.00
605.94	5898.00
606.39	5927.00
606.84	5908.00
607.30	5890.00
607.75	5832.00
608.20	5849.00
608.65	5876.00
609.10	5871.00
609.55	5878.00
610.00	5851.00
610.45	5853.00
610.90	5849.00
611.35	5886.00
611.80	5918.00
612.25	5812.00
612.70	5874.00
613.15	5856.00
613.60	5849.00
614.05	5803.00
614.50	5865.00
614.95	5833.00
615.40	5891.00
615.85	5768.00
616.30	5703.00
616.75	5687.00
617.20	5679.00
617.65	5827.00
618.10	5807.00
618.55	5876.00
619.00	5847.00
619.45	5856.00
619.90	5926.00
620.35	5879.00
620.80	5928.00
621.25	5860.00
621.70	5827.00
622.15	5795.00
622.60	5860.00
623.05	5880.00
623.50	5804.00
623.95	5852.00
624.40	5830.00
624.85	5791.00
625.30	5775.00
625.75	5743.00
626.20	5825.00
626.65	5832.00
627.10	5816.00
627.55	5720.00
627.99	5725.00
628.44	5750.00
628.89	5741.00
629.34	5774.00
629.79	5801.00
630.24	5774.00
630.69	5716.00
631.14	5815.00
631.59	5788.00
632.04	5793.00
632.49	5754.00
632.94	5840.00
633.38	5796.00
633.83	5807.00
634.28	5847.00
634.73	5799.00
635.18	5841.00
635.63	5835.00
636.08	5868.00
636.53	5875.00
636.97	5930.00
637.42	5954.00
637.87	5940.00
638.32	5979.00
638.77	5970.00
639.22	5971.00
639.67	5882.00
640.11	5950.00
640.56	5899.00
641.01	5891.00
641.46	5896.00
641.91	5911.00
642.36	5945.00
642.81	5943.00
643.25	5906.00
643.70	5930.00
644.15	5969.00
644.60	5962.00
645.05	5920.00
645.49	5924.00
645.94	5885.00
646.39	5843.00
646.84	5787.00
647.29	5770.00
647.73	5779.00
648.18	5825.00
648.63	5761.00
649.08	5797.00
649.53	5712.00
649.97	5765.00
650.42	5809.00
650.87	5898.00
651.32	5805.00
651.77	5769.00
652.21	5834.00
652.66	5800.00
653.11	5780.00
653.56	5845.00
654.00	5848.00
654.45	5852.00
654.90	5779.00
655.35	5684.00
655.79	5540.00
656.24	5311.00
656.69	5358.00
657.14	5483.00
657.58	5672.00
658.03	5788.00
658.48	5806.00
658.92	5857.00
659.37	5784.00
659.82	5815.00
660.27	5831.00
660.71	5944.00
661.16	5905.00
661.61	5932.00
662.05	5920.00
662.50	5963.00
662.95	5943.00
663.39	5862.00
663.84	5863.00
664.29	5923.00
664.74	5877.00
665.18	5901.00
665.63	5996.00
666.08	5846.00
666.52	5909.00
666.97	5888.00
667.42	5885.00
667.86	5927.00
668.31	5882.00
668.76	5891.00
669.20	5878.00
669.65	5943.00
670.09	5900.00
670.54	5909.00
670.99	5915.00
671.43	5887.00
671.88	5831.00
672.33	5846.00
672.77	5876.00
673.22	5851.00
673.66	5884.00
674.11	5893.00
674.56	5857.00
675.00	5810.00
675.45	5819.00
675.90	5910.00
676.34	5852.00
676.79	5815.00
677.23	5856.00
677.68	5842.00
678.12	5853.00
678.57	5861.00
679.02	5830.00
679.46	5846.00
679.91	5805.00
680.35	5827.00
680.80	5741.00
681.25	5768.00
681.69	5833.00
682.14	5812.00
682.58	5840.00
683.03	5720.00
683.47	5762.00
683.92	5732.00
684.36	5797.00
684.81	5704.00
685.25	5751.00
685.70	5751.00
686.15	5676.00
686.59	5465.00
687.04	5083.00
687.48	4869.00
687.93	4981.00
688.37	5141.00
688.82	5320.00
689.26	5269.00
689.71	5243.00
690.15	5283.00
690.60	5370.00
691.04	5394.00
691.49	5434.00
691.93	5481.00
692.38	5515.00
692.82	5538.00
693.27	5465.00
693.71	5444.00
694.16	5383.00
694.60	5359.00
695.04	5474.00
695.49	5437.00
695.93	5482.00
696.38	5558.00
696.82	5650.00
697.27	5707.00
697.71	5608.00
698.16	5603.00
698.60	5495.00
699.04	5508.00
699.49	5475.00
699.93	5517.00
700.38	5466.00
700.82	5479.00
701.27	5524.00
701.71	5464.00
702.15	5475.00
702.60	5450.00
703.04	5478.00
703.49	5519.00
703.93	5550.00
704.37	5550.00
704.82	5607.00
705.26	5565.00
705.71	5558.00
706.15	5517.00
706.59	5585.00
707.04	5513.00
707.48	5535.00
707.93	5594.00
708.37	5580.00
708.81	5537.00
709.26	5565.00
709.70	5561.00
710.14	5557.00
710.59	5566.00
711.03	5521.00
711.47	5545.00
711.92	5545.00
712.36	5537.00
712.80	5544.00
713.25	5491.00
713.69	5497.00
714.13	5540.00
714.58	5555.00
715.02	5442.00
715.46	5428.00
715.91	5459.00
716.35	5305.00
716.79	5146.00
717.24	4988.00
717.68	4908.00
718.12	4826.00
718.57	4721.00
719.01	4718.00
719.45	4668.00
719.89	4676.00
720.34	4705.00
720.78	4764.00
721.22	4972.00
721.66	5118.00
722.11	5222.00
722.55	5196.00
722.99	5146.00
723.44	4984.00
723.88	4831.00
724.32	4853.00
724.76	4839.00
725.21	4824.00
725.65	4871.00
726.09	4873.00
726.53	4888.00
726.97	4928.00
727.42	4926.00
727.86	4800.00
728.30	4934.00
728.74	4947.00
729.19	4845.00
729.63	4893.00
730.07	4952.00
730.51	4908.00
730.95	4985.00
731.40	4962.00
731.84	4976.00
732.28	5106.00
732.72	5197.00
733.16	5163.00
733.61	5186.00
734.05	5232.00
734.49	5218.00
734.93	5208.00
735.37	5208.00
735.81	5163.00
736.26	5211.00
736.70	5194.00
737.14	5242.00
737.58	5266.00
738.02	5288.00
738.46	5168.00
738.90	5137.00
739.35	5163.00
739.79	5195.00
740.23	5206.00
740.67	5228.00
741.11	5223.00
741.55	5240.00
741.99	5239.00
742.44	5225.00
742.88	5275.00
743.32	5231.00
743.76	5298.00
744.20	5244.00
744.64	5247.00
745.08	5251.00
745.52	5241.00
745.96	5229.00
746.40	5284.00
746.84	5347.00
747.29	5269.00
747.73	5281.00
748.17	5275.00
748.61	5237.00
749.05	5271.00
749.49	5248.00
749.93	5271.00
750.37	5275.00
750.81	5291.00
751.25	5191.00
751.69	5213.00
752.13	5248.00
752.57	5292.00
753.01	5291.00
753.45	5216.00
753.89	5328.00
754.33	5283.00
754.77	5268.00
755.21	5241.00
755.65	5226.00
756.09	5260.00
756.53	5276.00
756.97	5182.00
757.41	5204.00
757.85	5241.00
758.29	5197.00
758.73	5140.00
759.17	4942.00
759.61	4365.00
760.05	3649.00
760.49	3182.00
760.93	3065.00
761.37	3262.00
761.81	3698.00
762.25	3947.00
762.69	3810.00
763.13	3610.00
763.57	3640.00
764.01	3699.00
764.45	3857.00
764.89	4044.00
765.33	4181.00
765.77	4374.00
766.21	4461.00
766.65	4601.00
767.09	4789.00
767.53	4905.00
767.96	4963.00
768.40	5026.00
768.84	5050.00
769.28	5014.00
769.72	5091.00
770.16	5048.00
770.60	5144.00
771.04	5137.00
771.48	5112.00
771.92	5125.00
772.35	5107.00
772.79	5186.00
773.23	5166.00
773.67	5167.00
774.11	5199.00
774.55	5097.00
774.99	5000.00
775.43	5057.00
775.86	5111.00
776.30	5106.00
776.74	5177.00
777.18	5149.00
777.62	5160.00
778.06	5114.00
778.50	5096.00
778.93	5146.00
779.37	5059.00
779.81	5044.00
780.25	5024.00
780.69	5012.00
781.12	5036.00
781.56	5024.00
782.00	5079.00
782.44	5109.00
782.88	5087.00
783.32	5080.00
783.75	5054.00
784.19	5043.00
784.63	5007.00
785.07	4992.00
785.50	5008.00
785.94	4996.00
786.38	4933.00
786.82	5008.00
787.26	4931.00
787.69	4927.00
788.13	4943.00
788.57	4971.00
789.01	4928.00
789.44	4927.00
789.88	4831.00
790.32	4856.00
790.76	4861.00
791.19	4872.00
791.63	4829.00
792.07	4813.00
792.51	4783.00
792.94	4819.00
793.38	4760.00
793.82	4817.00
794.25	4854.00
794.69	4864.00
795.13	4829.00
795.56	4850.00
796.00	4813.00
796.44	4729.00
796.88	4754.00
797.31	4791.00
797.75	4772.00
798.19	4761.00
798.62	4832.00
799.06	4744.00
799.50	4806.00
799.93	4760.00
800.37	4707.00
800.81	4761.00
801.24	4747.00
801.68	4716.00
802.12	4724.00
802.55	4742.00
802.99	4683.00
803.43	4686.00
803.86	4701.00
804.30	4685.00
804.73	4655.00
805.17	4648.00
805.61	4730.00
806.04	4743.00
806.48	4720.00
806.92	4683.00
807.35	4729.00
807.79	4763.00
808.22	4640.00
808.66	4728.00
809.10	4614.00
809.53	4526.00
809.97	4547.00
810.40	4600.00
810.84	4557.00
811.27	4540.00
811.71	4542.00
812.15	4524.00
812.58	4499.00
813.02	4485.00
813.45	4294.00
813.89	4321.00
814.32	4279.00
814.76	4207.00
815.19	4145.00
815.63	4170.00
816.07	4133.00
816.50	4047.00
816.94	4087.00
817.37	4194.00
817.81	4074.00
818.24	4068.00
818.68	4190.00
819.11	4194.00
819.55	4180.00
819.98	4173.00
820.42	4275.00
820.85	4425.00
821.29	4388.00
821.72	4295.00
822.16	4245.00
822.59	4038.00
823.03	3868.00
823.46	3980.00
823.90	4176.00
824.33	4304.00
824.77	4351.00
825.20	4335.00
825.63	4355.00
826.07	4302.00
826.50	4352.00
826.94	4346.00
827.37	4249.00
827.81	4147.00
828.24	4182.00
828.68	4230.00
829.11	4186.00
829.54	4224.00
829.98	4226.00
830.41	4225.00
830.85	4254.00
831.28	4256.00
831.71	4216.00
832.15	4240.00
832.58	4333.00
833.02	4324.00
833.45	4204.00
833.88	4226.00
834.32	4331.00
834.75	4334.00
835.19	4269.00
835.62	4324.00
836.05	4319.00
836.49	4305.00
836.92	4350.00
837.35	4336.00
837.79	4333.00
838.22	4401.00
838.66	4412.00
839.09	4407.00
839.52	4421.00
839.96	4398.00
840.39	4435.00
840.82	4362.00
841.26	4431.00
841.69	4346.00
842.12	4334.00
842.56	4384.00
842.99	4342.00
843.42	4370.00
843.85	4328.00
844.29	4321.00
844.72	4385.00
845.15	4363.00
845.59	4409.00
846.02	4407.00
846.45	4372.00
846.88	4387.00
847.32	4371.00
847.75	4361.00
848.18	4353.00
848.62	4382.00
849.05	4380.00
849.48	4284.00
849.91	4176.00
850.35	4217.00
850.78	4325.00
851.21	4336.00
851.64	4321.00
852.08	4338.00
852.51	4392.00
852.94	4334.00
853.37	4330.00
853.80	4134.00
854.24	3975.00
854.67	4056.00
855.10	4205.00
855.53	4244.00
855.97	4305.00
856.40	4287.00
856.83	4321.00
857.26	4359.00
857.69	4325.00
858.13	4337.00
858.56	4310.00
858.99	4370.00
859.42	4302.00
859.85	4367.00
860.28	4337.00
860.72	4364.00
861.15	4374.00
861.58	4305.00
862.01	4288.00
862.44	4317.00
862.87	4306.00
863.30	4319.00
863.74	4311.00
864.17	4303.00
864.60	4324.00
865.03	4289.00
865.46	4252.00
865.89	4125.00
866.32	4004.00
866.75	4179.00
867.19	4234.00
867.62	4338.00
868.05	4287.00
868.48	4240.00
868.91	4211.00
869.34	4243.00
869.77	4225.00
870.20	4250.00
870.63	4275.00
871.06	4216.00
871.49	4208.00
871.93	4245.00
872.36	4220.00
872.79	4225.00
873.22	4225.00
873.65	4270.00
874.08	4236.00
874.51	4262.00
874.94	4239.00
875.37	4213.00
875.80	4214.00
876.23	4233.00
876.66	4247.00
877.09	4225.00
877.52	4171.00
877.95	4206.00
878.38	4227.00
878.81	4163.00
879.24	4172.00
879.67	4198.00
880.10	4192.00
880.53	4106.00
880.96	4152.00
881.39	4228.00
881.82	4224.00
882.25	4190.00
882.68	4207.00
883.11	4209.00
883.54	4243.00
883.97	4192.00
884.40	4177.00
884.83	4208.00
885.26	4194.00
885.69	4165.00
886.12	4140.00
886.55	4122.00
886.98	4146.00
887.40	4150.00
887.83	4126.00
888.26	4183.00
888.69	4201.00
889.12	4181.00
889.55	4093.00
889.98	4183.00
890.41	4157.00
890.84	4200.00
891.27	4144.00
891.70	4107.00
892.12	4148.00
892.55	4085.00
892.98	4039.00
893.41	4115.00
893.84	4034.00
894.27	4020.00
894.70	3948.00
895.13	3909.00
895.55	3913.00
895.98	3834.00
896.41	3799.00
896.84	3780.00
897.27	3815.00
897.70	3795.00
898.13	3779.00
898.55	3553.00
898.98	3601.00
899.41	3819.00
899.84	3741.00
900.27	3699.00
900.70	3685.00
901.12	3690.00
901.55	3677.00
901.98	3692.00
902.41	3725.00
902.84	3847.00
903.26	3896.00
903.69	3903.00
904.12	3926.00
904.55	3889.00
904.97	3890.00
905.40	3859.00
905.83	3855.00
906.26	3749.00
906.69	3720.00
907.11	3686.00
907.54	3642.00
907.97	3678.00
908.40	3641.00
908.82	3694.00
909.25	3660.00
909.68	3650.00
910.10	3658.00
910.53	3634.00
910.96	3733.00
911.39	3652.00
911.81	3678.00
912.24	3699.00
912.67	3578.00
913.09	3559.00
913.52	3613.00
913.95	3668.00
914.38	3696.00
914.80	3568.00
915.23	3554.00
915.66	3616.00
916.08	3699.00
916.51	3661.00
916.94	3547.00
917.36	3598.00
917.79	3661.00
918.22	3692.00
918.64	3680.00
919.07	3691.00
919.50	3763.00
919.92	3802.00
920.35	3711.00
920.78	3722.00
921.20	3660.00
921.63	3693.00
922.05	3719.00
922.48	3666.00
922.91	3652.00
923.33	3660.00
923.76	3614.00
924.18	3625.00
924.61	3638.00
925.04	3674.00
925.46	3611.00
925.89	3660.00
926.31	3679.00
926.74	3600.00
927.17	3509.00
927.59	3403.00
928.02	3369.00
928.44	3372.00
928.87	3319.00
929.29	3221.00
929.72	3215.00
930.15	3175.00
930.57	3146.00
931.00	3069.00
931.42	2981.00
931.85	2964.00
932.27	2948.00
932.70	2953.00
933.12	2845.00
933.55	2820.00
933.97	2860.00
934.40	2960.00
934.82	2908.00
935.25	2867.00
935.67	2912.00
936.10	2876.00
936.52	2813.00
936.95	2873.00
937.37	2859.00
937.80	2872.00
938.22	2918.00
938.65	3032.00
939.07	3050.00
939.50	2988.00
939.92	2944.00
940.35	2940.00
940.77	2932.00
941.19	2920.00
941.62	2922.00
942.04	2876.00
942.47	2844.00
942.89	2916.00
943.32	2848.00
943.74	2819.00
944.16	2886.00
944.59	2919.00
945.01	2861.00
945.44	2846.00
945.86	2875.00
946.29	2895.00
946.71	2896.00
947.13	2902.00
947.56	2873.00
947.98	2944.00
948.40	2969.00
948.83	2908.00
949.25	2865.00
949.68	2899.00
950.10	3023.00
950.52	3025.00
950.95	2957.00
951.37	2905.00
951.79	2907.00
952.22	2928.00
952.64	3009.00
953.06	3023.00
953.49	2973.00
953.91	2952.00
954.33	3000.00
954.76	2956.00
955.18	2997.00
955.60	2961.00
956.03	3000.00
956.45	3041.00
956.87	3105.00
957.30	3048.00
957.72	3062.00
958.14	3004.00
958.56	2968.00
958.99	3031.00
959.41	3088.00
959.83	3089.00
960.26	3108.00
960.68	3154.00
961.10	3130.00
961.52	3075.00
961.95	3106.00
962.37	3180.00
962.79	3137.00
963.21	3144.00
963.64	3151.00
964.06	3172.00
964.48	3211.00
964.90	3202.00
965.32	3144.00
965.75	3170.00
966.17	3212.00
966.59	3302.00
967.01	3303.00
967.44	3313.00
967.86	3318.00
968.28	3340.00
968.70	3364.00
969.12	3331.00
969.54	3352.00
969.97	3378.00
970.39	3385.00
970.81	3329.00
971.23	3361.00
971.65	3321.00
972.07	3331.00
972.50	3282.00
972.92	3259.00
973.34	3258.00
973.76	3272.00
974.18	3261.00
974.60	3251.00
975.02	3254.00
975.45	3239.00
975.87	3303.00
976.29	3329.00
976.71	3329.00
977.13	3291.00
977.55	3301.00
977.97	3308.00
978.39	3261.00
978.81	3316.00
979.24	3321.00
979.66	3347.00
980.08	3363.00
980.50	3372.00
980.92	3386.00
981.34	3347.00
981.76	3328.00
982.18	3352.00
982.60	3382.00
983.02	3394.00
983.44	3364.00
983.86	3318.00
984.28	3339.00
984.70	3364.00
985.12	3340.00
985.54	3357.00
985.96	3334.00
986.38	3310.00
986.80	3360.00
987.23	3354.00
987.65	3363.00
988.07	3363.00
988.49	3369.00
988.91	3367.00
989.33	3328.00
989.74	3332.00
990.16	3344.00
990.58	3329.00
991.00	3343.00
991.42	3308.00
991.84	3329.00
992.26	3359.00
992.68	3353.00
993.10	3304.00
993.52	3340.00
993.94	3314.00
994.36	3340.00
994.78	3287.00
995.20	3301.00
995.62	3317.00
996.04	3302.00
996.46	3304.00
996.88	3307.00
997.30	3326.00
997.71	3328.00
998.13	3311.00
998.55	3331.00
998.97	3363.00
999.39	3335.00
999.81	3358.00
1000.23	3332.00
1000.65	3322.00
1001.07	3328.00
1001.49	3288.00
1001.90	3331.00
1002.32	3339.00
1002.74	3340.00
1003.16	3306.00
1003.58	3322.00
1004.00	3299.00
1004.42	3289.00
1004.83	3306.00
1005.25	3290.00
1005.67	3289.00
1006.09	3303.00
1006.51	3277.00
1006.92	3256.00
1007.34	3297.00
1007.76	3284.00
1008.18	3280.00
1008.60	3257.00
1009.02	3259.00
1009.43	3289.00
1009.85	3253.00
1010.27	3278.00
1010.69	3257.00
1011.10	3292.00
1011.52	3244.00
1011.94	3255.00
1012.36	3231.00
1012.78	3276.00
1013.19	3217.00
1013.61	3245.00
1014.03	3242.00
1014.45	3235.00
1014.86	3212.00
1015.28	3201.00
1015.70	3212.00
1016.12	3214.00
1016.53	3176.00
1016.95	3196.00
1017.37	3170.00
1017.78	3164.00
1018.20	3179.00
1018.62	3150.00
1019.03	3154.00
1019.45	3154.00
1019.87	3145.00
1020.29	3128.00
1020.70	3154.00
1021.12	3129.00
1021.54	3135.00
1021.95	3170.00
1022.37	3142.00
1022.79	3146.00
1023.20	3130.00
1023.62	3114.00
1024.04	3089.00
1024.45	3133.00
1024.87	3125.00
1025.28	3113.00
1025.70	3099.00
1026.12	3114.00
1026.53	3066.00
1026.95	3088.00
1027.37	3064.00
1027.78	3085.00
1028.20	3050.00
1028.61	3064.00
1029.03	3067.00
1029.45	3042.00
1029.86	3065.00
1030.28	3022.00
1030.69	3043.00
1031.11	3028.00
1031.53	3019.00
1031.94	3035.00
1032.36	3010.00
1032.77	3016.00
1033.19	3023.00
1033.60	2998.00
1034.02	3015.00
1034.43	3001.00
1034.85	2998.00
1035.27	3006.00
1035.68	2997.00
1036.10	2979.00
1036.51	2973.00
1036.93	2968.00
1037.34	2970.00
1037.76	2962.00
1038.17	2981.00
1038.59	2964.00
1039.00	2946.00
1039.42	2961.00
1039.83	2957.00
1040.25	2939.00
1040.66	2964.00
1041.08	2909.00
1041.49	2932.00
1041.91	2922.00
1042.32	2947.00
1042.73	2918.00
1043.15	2926.00
1043.56	2934.00
1043.98	2915.00
1044.39	2900.00
1044.81	2914.00
1045.22	2896.00
1045.64	2904.00
1046.05	2890.00
1046.46	2892.00
1046.88	2904.00
1047.29	2879.00
1047.71	2888.00
1048.12	2877.00
1048.53	2877.00
1048.95	2870.00
1049.36	2869.00
1049.78	2859.00
1050.19	2868.00
1050.60	2861.00
1051.02	2848.00
1051.43	2825.00
1051.85	2839.00
1052.26	2843.00
1052.67	2848.00
1053.09	2852.00
1053.50	2806.00
1053.91	2830.00
1054.33	2821.00
1054.74	2813.00
1055.15	2819.00
1055.57	2815.00
1055.98	2798.00
1056.39	2802.00
1056.81	2798.00
1057.22	2801.00
1057.63	2801.00
1058.05	2800.00
1058.46	2793.00
1058.87	2800.00
1059.28	2799.00
1059.70	2779.00
1060.11	2814.00
1060.52	2788.00
1060.94	2783.00
1061.35	2777.00
1061.76	2779.00
1062.17	2779.00
1062.59	2768.00
1063.00	2766.00
1063.41	2774.00
1063.82	2761.00
1064.24	2768.00
1064.65	2746.00
1065.06	2759.00
1065.47	2763.00
1065.89	2760.00
1066.30	2753.00
1066.71	2753.00
1067.12	2740.00
1067.53	2745.00
1067.95	2747.00
1068.36	2741.00
1068.77	2738.00
1069.18	2733.00
1069.59	2738.00
1070.00	2739.00
1070.42	2733.00
1070.83	2728.00
1071.24	2712.00
1071.65	2732.00
1072.06	2713.00
1072.47	2720.00
1072.89	2723.00
1073.30	2707.00
1073.71	2721.00
1074.12	2714.00
1074.53	2725.00
1074.94	2704.00
1075.35	2715.00
1075.77	2696.00
1076.18	2704.00
1076.59	2710.00
1077.00	2708.00
1077.41	2704.00
1077.82	2685.00
1078.23	2706.00
1078.64	2692.00
1079.05	2686.00
1079.46	2694.00
1079.87	2695.00
1080.29	2692.00
1080.70	2692.00
1081.11	2691.00
1081.52	2688.00
1081.93	2688.00
1082.34	2684.00
1082.75	2676.00
1083.16	2685.00
1083.57	2676.00
1083.98	2674.00
1084.39	2678.00
1084.80	2673.00
1085.21	2673.00
1085.62	2678.00
1086.03	2694.00
1086.44	2677.00
1086.85	2671.00
1087.26	2656.00
1087.67	2660.00
1088.08	2678.00
1088.49	2662.00
1088.90	2659.00
1089.31	2664.00
1089.72	2657.00
1090.13	2654.00
1090.54	2647.00
1090.95	2662.00
1091.36	2649.00
1091.77	2640.00
1092.18	2655.00
1092.59	2648.00
1093.00	2657.00
1093.40	2649.00
1093.81	2644.00
1094.22	2646.00
1094.63	2645.00
1095.04	2636.00
1095.45	2633.00
1095.86	2639.00
1096.27	2633.00
1096.68	2644.00
1097.09	2646.00
1097.50	2634.00
1097.90	2643.00
1098.31	2634.00
1098.72	2624.00
1099.13	2634.00
1099.54	2632.00
1099.95	2627.00
1100.36	2618.00
1100.76	2637.00
1101.17	2630.00
1101.58	2624.00
1101.99	2625.00
1102.40	2622.00
1102.81	2621.00
1103.22	2627.00
1103.62	2626.00
1104.03	2619.00
1104.44	2624.00
1104.85	2611.00
1105.26	2611.00
1105.66	2615.00
1106.07	2614.00
1106.48	2614.00
1106.89	2614.00
1107.30	2610.00
1107.70	2612.00
1108.11	2620.00
1108.52	2604.00
1108.93	2618.00
1109.33	2619.00
1109.74	2611.00
1110.15	2614.00
1110.56	2608.00
1110.96	2604.00
1111.37	2611.00
1111.78	2611.00
1112.19	2613.00
1112.59	2612.00
1113.00	2598.00
1113.41	2612.00
1113.81	2610.00
1114.22	2610.00
1114.63	2578.00
1115.03	2582.00
1115.44	2585.00
1115.85	2575.00
>>>>>End Processed Spectral Data<<<<<
