SpectraSuite Data File
++++++++++++++++++++++++++++++++++++
Date: Mon Jul 27 12:03:41 EEST 2020
User: CanSEE
Dark Spectrum Present: No
Reference Spectrum Present: No
Number of Sampled Component Spectra: 1
Spectrometers: MAYP112785
Integration Time (usec): 100000 (MAYP112785)
Spectra Averaged: 1 (MAYP112785)
Boxcar Smoothing: 0 (MAYP112785)
Correct for Electrical Dark: No (MAYP112785)
Strobe/Lamp Enabled: No (MAYP112785)
Correct for Detector Non-linearity: No (MAYP112785)
Correct for Stray Light: No (MAYP112785)
Number of Pixels in Processed Spectrum: 2068
>>>>>Begin Processed Spectral Data<<<<<
198.73	3489.00
199.20	2488.00
199.67	2597.00
200.14	2575.00
200.61	2707.00
201.08	2692.00
201.56	2708.00
202.03	2775.00
202.50	2764.00
202.97	2743.00
203.44	2737.00
203.91	2746.00
204.39	2758.00
204.86	2774.00
205.33	2744.00
205.80	2747.00
206.27	2754.00
206.74	2760.00
207.21	2750.00
207.69	2738.00
208.16	2744.00
208.63	2747.00
209.10	2742.00
209.57	2771.00
210.04	2769.00
210.51	2749.00
210.98	2737.00
211.46	2756.00
211.93	2775.00
212.40	2751.00
212.87	2763.00
213.34	2767.00
213.81	2749.00
214.28	2759.00
214.75	2757.00
215.23	2735.00
215.70	2747.00
216.17	2750.00
216.64	2756.00
217.11	2752.00
217.58	2754.00
218.05	2780.00
218.52	2744.00
218.99	2777.00
219.46	2745.00
219.94	2773.00
220.41	2742.00
220.88	2762.00
221.35	2759.00
221.82	2767.00
222.29	2771.00
222.76	2763.00
223.23	2756.00
223.70	2765.00
224.17	2773.00
224.64	2775.00
225.11	2774.00
225.58	2763.00
226.06	2754.00
226.53	2785.00
227.00	2772.00
227.47	2785.00
227.94	2767.00
228.41	2770.00
228.88	2768.00
229.35	2777.00
229.82	2757.00
230.29	2755.00
230.76	2773.00
231.23	2770.00
231.70	2779.00
232.17	2743.00
232.64	2743.00
233.11	2774.00
233.58	2747.00
234.05	2767.00
234.52	2759.00
235.00	2783.00
235.47	2772.00
235.94	2762.00
236.41	2759.00
236.88	2762.00
237.35	2766.00
237.82	2765.00
238.29	2756.00
238.76	2761.00
239.23	2791.00
239.70	3408.00
240.17	2763.00
240.64	2780.00
241.11	2776.00
241.58	2775.00
242.05	2770.00
242.52	2773.00
242.99	2757.00
243.46	2764.00
243.93	2774.00
244.40	2777.00
244.87	2781.00
245.34	2767.00
245.81	2909.00
246.28	2767.00
246.75	2768.00
247.22	2770.00
247.69	2776.00
248.16	2763.00
248.63	2821.00
249.10	2756.00
249.57	2776.00
250.04	2772.00
250.51	2762.00
250.98	2775.00
251.44	2776.00
251.91	2777.00
252.38	2769.00
252.85	2761.00
253.32	2758.00
253.79	2765.00
254.26	2771.00
254.73	2769.00
255.20	2776.00
255.67	2758.00
256.14	2784.00
256.61	2743.00
257.08	2764.00
257.55	2791.00
258.02	2773.00
258.49	2779.00
258.96	2773.00
259.43	2772.00
259.90	2767.00
260.36	2782.00
260.83	2781.00
261.30	2808.00
261.77	2773.00
262.24	2775.00
262.71	2766.00
263.18	2785.00
263.65	2760.00
264.12	2797.00
264.59	2768.00
265.06	2827.00
265.53	2788.00
265.99	2792.00
266.46	2790.00
266.93	2759.00
267.40	2777.00
267.87	2803.00
268.34	2775.00
268.81	2786.00
269.28	2772.00
269.75	2768.00
270.22	2783.00
270.68	2775.00
271.15	2779.00
271.62	2783.00
272.09	2785.00
272.56	2773.00
273.03	2776.00
273.50	2770.00
273.97	2770.00
274.43	2777.00
274.90	2804.00
275.37	2789.00
275.84	2765.00
276.31	2759.00
276.78	2765.00
277.25	2771.00
277.71	2767.00
278.18	2771.00
278.65	2770.00
279.12	2786.00
279.59	2770.00
280.06	2777.00
280.53	2818.00
280.99	2775.00
281.46	2776.00
281.93	2775.00
282.40	2780.00
282.87	2765.00
283.34	2775.00
283.80	2754.00
284.27	2774.00
284.74	2775.00
285.21	2764.00
285.68	2768.00
286.15	2772.00
286.61	2738.00
287.08	2779.00
287.55	2757.00
288.02	2771.00
288.49	2775.00
288.95	2768.00
289.42	2760.00
289.89	2770.00
290.36	2769.00
290.83	2762.00
291.29	2772.00
291.76	2764.00
292.23	2769.00
292.70	2775.00
293.17	2761.00
293.63	2766.00
294.10	2768.00
294.57	2769.00
295.04	2749.00
295.51	2751.00
295.97	2756.00
296.44	2774.00
296.91	2759.00
297.38	2763.00
297.84	2805.00
298.31	2753.00
298.78	2771.00
299.25	2760.00
299.71	2781.00
300.18	2753.00
300.65	2769.00
301.12	2750.00
301.58	2758.00
302.05	2763.00
302.52	2767.00
302.99	2753.00
303.45	2756.00
303.92	2768.00
304.39	2781.00
304.86	2772.00
305.32	2764.00
305.79	2750.00
306.26	2763.00
306.73	2764.00
307.19	2785.00
307.66	2749.00
308.13	2754.00
308.60	2762.00
309.06	2762.00
309.53	2756.00
310.00	2760.00
310.46	2756.00
310.93	2765.00
311.40	2753.00
311.87	2763.00
312.33	2774.00
312.80	2761.00
313.27	2761.00
313.73	2773.00
314.20	2778.00
314.67	2744.00
315.13	2765.00
315.60	2754.00
316.07	2773.00
316.53	2765.00
317.00	2764.00
317.47	2774.00
317.94	2771.00
318.40	2744.00
318.87	2739.00
319.34	2752.00
319.80	2750.00
320.27	2743.00
320.74	2754.00
321.20	2743.00
321.67	2746.00
322.14	2758.00
322.60	2752.00
323.07	2763.00
323.54	2744.00
324.00	2769.00
324.47	2753.00
324.93	2753.00
325.40	2765.00
325.87	2764.00
326.33	2739.00
326.80	2759.00
327.27	2762.00
327.73	2731.00
328.20	2751.00
328.67	2753.00
329.13	2748.00
329.60	2745.00
330.06	2755.00
330.53	2751.00
331.00	2766.00
331.46	2749.00
331.93	2735.00
332.40	2739.00
332.86	2746.00
333.33	2757.00
333.79	2738.00
334.26	2757.00
334.73	2765.00
335.19	2747.00
335.66	2751.00
336.12	2755.00
336.59	2759.00
337.06	2769.00
337.52	2731.00
337.99	2746.00
338.45	2748.00
338.92	2758.00
339.38	2755.00
339.85	2749.00
340.32	2767.00
340.78	2738.00
341.25	2759.00
341.71	2751.00
342.18	2776.00
342.64	2776.00
343.11	2764.00
343.58	2748.00
344.04	2758.00
344.51	2773.00
344.97	2735.00
345.44	2744.00
345.90	2757.00
346.37	2746.00
346.83	2746.00
347.30	2756.00
347.77	2754.00
348.23	2749.00
348.70	2746.00
349.16	2752.00
349.63	2722.00
350.09	2745.00
350.56	2741.00
351.02	2754.00
351.49	2771.00
351.95	2764.00
352.42	2759.00
352.88	2768.00
353.35	2745.00
353.81	2725.00
354.28	2749.00
354.74	2745.00
355.21	2744.00
355.67	2746.00
356.14	2779.00
356.60	2743.00
357.07	2759.00
357.53	2743.00
358.00	2732.00
358.46	2762.00
358.93	2775.00
359.39	2737.00
359.86	2801.00
360.32	2734.00
360.79	2745.00
361.25	2737.00
361.72	2766.00
362.18	2741.00
362.65	2754.00
363.11	2737.00
363.58	2789.00
364.04	2752.00
364.51	2771.00
364.97	2750.00
365.43	2750.00
365.90	2729.00
366.36	2749.00
366.83	2752.00
367.29	2744.00
367.76	2752.00
368.22	2748.00
368.69	2740.00
369.15	2748.00
369.61	2734.00
370.08	2740.00
370.54	2748.00
371.01	2753.00
371.47	2749.00
371.94	2747.00
372.40	2730.00
372.86	2770.00
373.33	2734.00
373.79	2747.00
374.26	2756.00
374.72	2755.00
375.19	2732.00
375.65	2738.00
376.11	2753.00
376.58	2741.00
377.04	2770.00
377.51	2742.00
377.97	2757.00
378.43	2752.00
378.90	2750.00
379.36	2737.00
379.82	2743.00
380.29	2757.00
380.75	2747.00
381.22	2750.00
381.68	2764.00
382.14	2745.00
382.61	2775.00
383.07	2747.00
383.53	2745.00
384.00	2750.00
384.46	2778.00
384.93	2730.00
385.39	2766.00
385.85	2741.00
386.32	2759.00
386.78	2761.00
387.24	2761.00
387.71	2774.00
388.17	2760.00
388.63	2739.00
389.10	2778.00
389.56	2847.00
390.02	2783.00
390.49	2782.00
390.95	2814.00
391.41	2813.00
391.88	2839.00
392.34	2846.00
392.80	2860.00
393.27	2915.00
393.73	2981.00
394.19	3020.00
394.66	3121.00
395.12	3239.00
395.58	3353.00
396.05	3500.00
396.51	3570.00
396.97	3718.00
397.43	3853.00
397.90	4115.00
398.36	4711.00
398.82	5200.00
399.29	5652.00
399.75	6165.00
400.21	6547.00
400.67	6974.00
401.14	7429.00
401.60	7864.00
402.06	8315.00
402.53	8786.00
402.99	9261.00
403.45	9631.00
403.91	9816.00
404.38	10243.00
404.84	10666.00
405.30	10936.00
405.76	11279.00
406.23	11648.00
406.69	12082.00
407.15	12346.00
407.61	12833.00
408.08	13326.00
408.54	13666.00
409.00	14398.00
409.46	15061.00
409.93	15328.00
410.39	15255.00
410.85	15135.00
411.31	15992.00
411.77	17048.00
412.24	17502.00
412.70	17936.00
413.16	18059.00
413.62	18124.00
414.09	18366.00
414.55	18784.00
415.01	19076.00
415.47	19075.00
415.93	19505.00
416.40	19537.00
416.86	20076.00
417.32	20148.00
417.78	19891.00
418.24	19633.00
418.71	20004.00
419.17	20100.00
419.63	20362.00
420.09	20610.00
420.55	20592.00
421.01	20726.00
421.48	21348.00
421.94	21530.00
422.40	21208.00
422.86	21095.00
423.32	20651.00
423.78	20631.00
424.25	21416.00
424.71	21384.00
425.17	21575.00
425.63	21608.00
426.09	21143.00
426.55	21329.00
427.01	21358.00
427.48	21588.00
427.94	20893.00
428.40	20785.00
428.86	21070.00
429.32	20330.00
429.78	19500.00
430.24	19155.00
430.71	18836.00
431.17	18730.00
431.63	19441.00
432.09	21070.00
432.55	23024.00
433.01	23305.00
433.47	22584.00
433.93	23403.00
434.39	23351.00
434.86	22472.00
435.32	23822.00
435.78	24832.00
436.24	25020.00
436.70	25360.00
437.16	25440.00
437.62	24971.00
438.08	24527.00
438.54	24199.00
439.00	24140.00
439.46	24023.00
439.93	24935.00
440.39	25784.00
440.85	25878.00
441.31	26090.00
441.77	26938.00
442.23	27498.00
442.69	27734.00
443.15	27973.00
443.61	28081.00
444.07	28081.00
444.53	28265.00
444.99	28273.00
445.45	28425.00
445.91	28396.00
446.37	28045.00
446.83	28252.00
447.29	28980.00
447.75	29463.00
448.21	30191.00
448.67	30367.00
449.14	30318.00
449.60	30827.00
450.06	30983.00
450.52	31430.00
450.98	31650.00
451.44	32256.00
451.90	31841.00
452.36	31366.00
452.82	31106.00
453.28	30728.00
453.74	30322.00
454.20	30393.00
454.66	31209.00
455.12	31584.00
455.58	31672.00
456.04	31772.00
456.50	32208.00
456.96	32652.00
457.42	32707.00
457.88	32680.00
458.33	32632.00
458.79	32434.00
459.25	32092.00
459.71	32350.00
460.17	32767.00
460.63	32901.00
461.09	33398.00
461.55	33509.00
462.01	33965.00
462.47	33876.00
462.93	34307.00
463.39	34083.00
463.85	33824.00
464.31	33684.00
464.77	33660.00
465.23	33319.00
465.69	33274.00
466.15	33445.00
466.61	33329.00
467.07	33393.00
467.52	33036.00
467.98	33398.00
468.44	33893.00
468.90	33969.00
469.36	33928.00
469.82	33953.00
470.28	33648.00
470.74	33712.00
471.20	33743.00
471.66	34325.00
472.12	34789.00
472.57	34960.00
473.03	35371.00
473.49	35244.00
473.95	35036.00
474.41	35340.00
474.87	35573.00
475.33	35635.00
475.79	35671.00
476.25	35315.00
476.70	35517.00
477.16	35722.00
477.62	35859.00
478.08	36377.00
478.54	36623.00
479.00	36937.00
479.46	36606.00
479.91	36627.00
480.37	37157.00
480.83	37064.00
481.29	37255.00
481.75	37293.00
482.21	37461.00
482.67	37560.00
483.12	37446.00
483.58	36944.00
484.04	36884.00
484.50	36452.00
484.96	35852.00
485.42	34964.00
485.87	34034.00
486.33	33219.00
486.79	32435.00
487.25	32654.00
487.71	34372.00
488.16	35069.00
488.62	35640.00
489.08	36175.00
489.54	36566.00
490.00	36621.00
490.45	37398.00
490.91	37520.00
491.37	37070.00
491.83	36615.00
492.29	36405.00
492.74	36537.00
493.20	36530.00
493.66	37157.00
494.12	38078.00
494.57	37762.00
495.03	38107.00
495.49	38251.00
495.95	38396.00
496.40	38273.00
496.86	37982.00
497.32	38451.00
497.78	37964.00
498.23	37882.00
498.69	37770.00
499.15	37541.00
499.61	37435.00
500.06	37431.00
500.52	37290.00
500.98	36709.00
501.44	36231.00
501.89	36427.00
502.35	36791.00
502.81	36880.00
503.27	37306.00
503.72	37172.00
504.18	37488.00
504.64	37437.00
505.09	37521.00
505.55	38261.00
506.01	38877.00
506.47	38704.00
506.92	39006.00
507.38	38571.00
507.84	38012.00
508.29	38114.00
508.75	38465.00
509.21	38518.00
509.66	39001.00
510.12	39074.00
510.58	39114.00
511.03	39084.00
511.49	39244.00
511.95	39742.00
512.40	39581.00
512.86	39340.00
513.32	38891.00
513.77	38509.00
514.23	38415.00
514.69	38423.00
515.14	38581.00
515.60	38705.00
516.06	38340.00
516.51	37260.00
516.97	36500.00
517.43	35593.00
517.88	34836.00
518.34	35444.00
518.79	36767.00
519.25	36926.00
519.71	37681.00
520.16	38565.00
520.62	38913.00
521.08	39443.00
521.53	39405.00
521.99	39545.00
522.44	39741.00
522.90	39619.00
523.36	39648.00
523.81	39766.00
524.27	40396.00
524.72	41062.00
525.18	41228.00
525.64	41110.00
526.09	40143.00
526.55	39153.00
527.00	38582.00
527.46	38227.00
527.92	38723.00
528.37	40035.00
528.83	41340.00
529.28	41649.00
529.74	41672.00
530.19	42107.00
530.65	42223.00
531.10	42223.00
531.56	42426.00
532.02	42520.00
532.47	41515.00
532.93	40983.00
533.38	40759.00
533.84	40496.00
534.29	41498.00
534.75	41824.00
535.20	41859.00
535.66	42419.00
536.11	42556.00
536.57	42560.00
537.02	41998.00
537.48	41581.00
537.93	41581.00
538.39	42077.00
538.84	42172.00
539.30	41848.00
539.75	41134.00
540.21	40931.00
540.66	40533.00
541.12	40488.00
541.57	40908.00
542.03	41189.00
542.48	41688.00
542.94	41751.00
543.39	41633.00
543.85	42073.00
544.30	42018.00
544.76	42392.00
545.21	42585.00
545.67	42417.00
546.12	42552.00
546.58	42718.00
547.03	42498.00
547.49	42222.00
547.94	42133.00
548.40	42357.00
548.85	42414.00
549.30	42664.00
549.76	42910.00
550.21	43020.00
550.67	42877.00
551.12	42893.00
551.58	43048.00
552.03	43173.00
552.48	43268.00
552.94	43110.00
553.39	43117.00
553.85	43102.00
554.30	43137.00
554.76	43622.00
555.21	43770.00
555.66	43497.00
556.12	43293.00
556.57	43330.00
557.03	42616.00
557.48	42238.00
557.93	42677.00
558.39	42372.00
558.84	42121.00
559.30	41904.00
559.75	41659.00
560.20	42034.00
560.66	42415.00
561.11	42709.00
561.56	42842.00
562.02	42871.00
562.47	42974.00
562.92	42866.00
563.38	43151.00
563.83	43208.00
564.29	43101.00
564.74	42914.00
565.19	42964.00
565.65	42704.00
566.10	42518.00
566.55	42258.00
567.01	42353.00
567.46	42810.00
567.91	42949.00
568.37	42965.00
568.82	42744.00
569.27	42586.00
569.73	42392.00
570.18	42294.00
570.63	42216.00
571.08	41926.00
571.54	42035.00
571.99	42264.00
572.44	43070.00
572.90	43276.00
573.35	43455.00
573.80	43606.00
574.26	43624.00
574.71	43371.00
575.16	43225.00
575.61	42911.00
576.07	42505.00
576.52	42861.00
576.97	43194.00
577.42	43191.00
577.88	43095.00
578.33	42816.00
578.78	42745.00
579.24	42861.00
579.69	42936.00
580.14	43501.00
580.59	43548.00
581.05	43780.00
581.50	43920.00
581.95	43870.00
582.40	44304.00
582.85	44466.00
583.31	44546.00
583.76	44704.00
584.21	44539.00
584.66	44739.00
585.12	44395.00
585.57	44097.00
586.02	43810.00
586.47	43365.00
586.92	43672.00
587.38	43762.00
587.83	44093.00
588.28	43265.00
588.73	42173.00
589.18	40309.00
589.64	39307.00
590.09	39395.00
590.54	40458.00
590.99	41475.00
591.44	42355.00
591.90	42351.00
592.35	42608.00
592.80	42568.00
593.25	42807.00
593.70	42932.00
594.15	42794.00
594.61	42481.00
595.06	42428.00
595.51	42186.00
595.96	42611.00
596.41	42957.00
596.86	43372.00
597.31	43503.00
597.77	43269.00
598.22	42886.00
598.67	43110.00
599.12	43010.00
599.57	43177.00
600.02	43206.00
600.47	43275.00
600.92	43380.00
601.38	43424.00
601.83	43229.00
602.28	43096.00
602.73	43224.00
603.18	43564.00
603.63	43954.00
604.08	44316.00
604.53	44472.00
604.98	44691.00
605.43	44467.00
605.89	44512.00
606.34	44467.00
606.79	44211.00
607.24	44785.00
607.69	44682.00
608.14	44323.00
608.59	44375.00
609.04	44325.00
609.49	44241.00
609.94	44329.00
610.39	43694.00
610.84	44099.00
611.29	44064.00
611.74	44267.00
612.19	44207.00
612.64	43932.00
613.10	44233.00
613.55	44047.00
614.00	43343.00
614.45	43689.00
614.90	43812.00
615.35	43854.00
615.80	44000.00
616.25	43316.00
616.70	42992.00
617.15	42715.00
617.60	42876.00
618.05	43631.00
618.50	44225.00
618.95	44278.00
619.40	44131.00
619.85	44192.00
620.30	44652.00
620.75	44711.00
621.20	44912.00
621.65	44456.00
622.10	44030.00
622.55	44134.00
623.00	43823.00
623.45	43552.00
623.89	43533.00
624.34	43368.00
624.79	43290.00
625.24	43078.00
625.69	42781.00
626.14	42871.00
626.59	43134.00
627.04	43517.00
627.49	43790.00
627.94	42925.00
628.39	42655.00
628.84	42292.00
629.29	42733.00
629.74	43063.00
630.19	42904.00
630.64	42953.00
631.09	43130.00
631.53	43117.00
631.98	43231.00
632.43	43188.00
632.88	43481.00
633.33	43588.00
633.78	43678.00
634.23	43592.00
634.68	43533.00
635.13	43981.00
635.58	44433.00
636.02	44139.00
636.47	44148.00
636.92	44171.00
637.37	44502.00
637.82	44913.00
638.27	45096.00
638.72	45024.00
639.16	45143.00
639.61	44930.00
640.06	44679.00
640.51	44419.00
640.96	44377.00
641.41	44260.00
641.86	44172.00
642.30	44317.00
642.75	44698.00
643.20	44772.00
643.65	44869.00
644.10	44725.00
644.55	44809.00
644.99	44666.00
645.44	44597.00
645.89	44461.00
646.34	43974.00
646.79	43904.00
647.23	43665.00
647.68	43357.00
648.13	43237.00
648.58	43124.00
649.03	43352.00
649.47	42795.00
649.92	42532.00
650.37	42793.00
650.82	43350.00
651.27	44123.00
651.71	44096.00
652.16	43313.00
652.61	43332.00
653.06	44103.00
653.50	44181.00
653.95	44324.00
654.40	44126.00
654.85	43891.00
655.29	43068.00
655.74	42312.00
656.19	40529.00
656.64	37743.00
657.08	37667.00
657.53	39485.00
657.98	41638.00
658.43	43296.00
658.87	43628.00
659.32	44047.00
659.77	43878.00
660.21	43997.00
660.66	44561.00
661.11	44569.00
661.56	44892.00
662.00	45111.00
662.45	45003.00
662.90	45145.00
663.34	44860.00
663.79	44633.00
664.24	44568.00
664.68	44605.00
665.13	44851.00
665.58	44981.00
666.02	45361.00
666.47	45022.00
666.92	44532.00
667.36	44669.00
667.81	44661.00
668.26	44705.00
668.70	44813.00
669.15	45215.00
669.60	45104.00
670.04	45042.00
670.49	44760.00
670.94	44540.00
671.38	44424.00
671.83	44410.00
672.28	44213.00
672.72	44426.00
673.17	44390.00
673.61	44360.00
674.06	44438.00
674.51	44510.00
674.95	44410.00
675.40	44156.00
675.85	44354.00
676.29	44359.00
676.74	44568.00
677.18	44346.00
677.63	44123.00
678.07	44208.00
678.52	44134.00
678.97	44153.00
679.41	44220.00
679.86	44122.00
680.30	44173.00
680.75	44018.00
681.20	44010.00
681.64	44006.00
682.09	43867.00
682.53	43985.00
682.98	43898.00
683.42	43735.00
683.87	43769.00
684.31	43297.00
684.76	43110.00
685.20	43016.00
685.65	43059.00
686.10	42664.00
686.54	42235.00
686.99	39557.00
687.43	34837.00
687.88	32478.00
688.32	33859.00
688.77	36476.00
689.21	37306.00
689.66	37186.00
690.10	36872.00
690.55	37314.00
690.99	37976.00
691.44	38700.00
691.88	39288.00
692.33	39768.00
692.77	39923.00
693.22	39605.00
693.66	39452.00
694.11	38889.00
694.55	38387.00
695.00	38402.00
695.44	38716.00
695.88	39113.00
696.33	39481.00
696.77	39969.00
697.22	41041.00
697.66	41494.00
698.11	40903.00
698.55	40513.00
699.00	40180.00
699.44	39729.00
699.88	39429.00
700.33	39462.00
700.77	39305.00
701.22	38997.00
701.66	39054.00
702.11	38713.00
702.55	38830.00
702.99	38671.00
703.44	38968.00
703.88	39720.00
704.33	40183.00
704.77	40138.00
705.21	40570.00
705.66	40235.00
706.10	40040.00
706.54	40106.00
706.99	40147.00
707.43	40204.00
707.88	40200.00
708.32	40403.00
708.76	40340.00
709.21	40242.00
709.65	40244.00
710.09	40501.00
710.54	40423.00
710.98	40794.00
711.42	40202.00
711.87	40148.00
712.31	40180.00
712.76	39869.00
713.20	39946.00
713.64	39617.00
714.08	39968.00
714.53	39987.00
714.97	39563.00
715.41	38771.00
715.86	38713.00
716.30	38304.00
716.74	37402.00
717.19	34965.00
717.63	32614.00
718.07	30909.00
718.52	30529.00
718.96	29439.00
719.40	28746.00
719.84	28635.00
720.29	28796.00
720.73	28512.00
721.17	29805.00
721.62	32412.00
722.06	34655.00
722.50	35312.00
722.94	35245.00
723.39	34480.00
723.83	32144.00
724.27	30841.00
724.71	30532.00
725.16	30766.00
725.60	30549.00
726.04	30574.00
726.48	31205.00
726.93	31212.00
727.37	31964.00
727.81	31516.00
728.25	30477.00
728.69	31516.00
729.14	32083.00
729.58	30774.00
730.02	30943.00
730.46	31856.00
730.90	31666.00
731.35	31792.00
731.79	32189.00
732.23	32687.00
732.67	33972.00
733.11	34869.00
733.56	35041.00
734.00	35242.00
734.44	36129.00
734.88	36217.00
735.32	36072.00
735.76	35656.00
736.21	35602.00
736.65	35668.00
737.09	35484.00
737.53	35827.00
737.97	36066.00
738.41	36410.00
738.85	35809.00
739.30	35140.00
739.74	35448.00
740.18	35738.00
740.62	36244.00
741.06	36460.00
741.50	36054.00
741.94	35894.00
742.38	35840.00
742.83	36035.00
743.27	36199.00
743.71	36718.00
744.15	36463.00
744.59	36353.00
745.03	36457.00
745.47	36424.00
745.91	36803.00
746.35	37241.00
746.79	37160.00
747.23	37120.00
747.68	37298.00
748.12	37053.00
748.56	36875.00
749.00	36889.00
749.44	36900.00
749.88	36664.00
750.32	36530.00
750.76	37051.00
751.20	37116.00
751.64	36715.00
752.08	36958.00
752.52	36993.00
752.96	36649.00
753.40	36656.00
753.84	36456.00
754.28	37029.00
754.72	36909.00
755.16	37053.00
755.60	36844.00
756.04	36964.00
756.48	37046.00
756.92	36872.00
757.36	36788.00
757.80	36617.00
758.24	36618.00
758.68	36074.00
759.12	35397.00
759.56	33195.00
760.00	25837.00
760.44	16499.00
760.88	11021.00
761.32	9822.00
761.76	12419.00
762.20	18343.00
762.64	21369.00
763.08	19341.00
763.52	17262.00
763.96	17288.00
764.40	18466.00
764.84	19917.00
765.28	22013.00
765.72	24097.00
766.15	25734.00
766.59	27553.00
767.03	29409.00
767.47	30983.00
767.91	32425.00
768.35	33443.00
768.79	33905.00
769.23	33966.00
769.67	34106.00
770.11	34424.00
770.55	34504.00
770.98	35361.00
771.42	35417.00
771.86	35089.00
772.30	35248.00
772.74	35455.00
773.18	35360.00
773.62	35383.00
774.06	35466.00
774.49	35005.00
774.93	34683.00
775.37	34126.00
775.81	34356.00
776.25	34805.00
776.69	35022.00
777.13	35143.00
777.56	35066.00
778.00	34955.00
778.44	34726.00
778.88	34943.00
779.32	34691.00
779.76	34312.00
780.19	34235.00
780.63	33883.00
781.07	34024.00
781.51	33909.00
781.95	34117.00
782.38	34448.00
782.82	34623.00
783.26	34543.00
783.70	33914.00
784.14	33937.00
784.57	33809.00
785.01	33849.00
785.45	33666.00
785.89	33197.00
786.32	33137.00
786.76	33095.00
787.20	32877.00
787.64	32680.00
788.07	32569.00
788.51	32595.00
788.95	32596.00
789.39	32330.00
789.82	31921.00
790.26	31680.00
790.70	31610.00
791.14	31730.00
791.57	31367.00
792.01	30818.00
792.45	30761.00
792.88	31024.00
793.32	30684.00
793.76	30436.00
794.20	31257.00
794.63	31423.00
795.07	31189.00
795.51	31168.00
795.94	31371.00
796.38	30457.00
796.82	30039.00
797.25	30080.00
797.69	30119.00
798.13	30242.00
798.56	30623.00
799.00	30333.00
799.44	30350.00
799.87	30496.00
800.31	29961.00
800.75	29867.00
801.18	29946.00
801.62	29913.00
802.06	29846.00
802.49	30031.00
802.93	29358.00
803.37	28972.00
803.80	29237.00
804.24	29222.00
804.67	29195.00
805.11	28715.00
805.55	29145.00
805.98	29635.00
806.42	29806.00
806.85	29934.00
807.29	29922.00
807.73	29558.00
808.16	29292.00
808.60	29165.00
809.03	28662.00
809.47	28388.00
809.91	28009.00
810.34	27745.00
810.78	27791.00
811.21	27921.00
811.65	27449.00
812.08	27292.00
812.52	27004.00
812.96	26943.00
813.39	26156.00
813.83	24630.00
814.26	24462.00
814.70	23941.00
815.13	22965.00
815.57	22341.00
816.00	22342.00
816.44	21886.00
816.87	20831.00
817.31	21245.00
817.74	22528.00
818.18	21578.00
818.61	21696.00
819.05	22552.00
819.48	22783.00
819.92	22632.00
820.35	22266.00
820.79	24188.00
821.22	25446.00
821.66	24692.00
822.09	24120.00
822.53	23039.00
822.96	20663.00
823.40	17950.00
823.83	19772.00
824.27	22665.00
824.70	23745.00
825.13	24849.00
825.57	25357.00
826.00	24575.00
826.44	24161.00
826.87	24944.00
827.31	25024.00
827.74	23264.00
828.17	22254.00
828.61	22555.00
829.04	22904.00
829.48	22707.00
829.91	22678.00
830.35	23385.00
830.78	23289.00
831.21	23613.00
831.65	24066.00
832.08	23481.00
832.52	23390.00
832.95	24088.00
833.38	24025.00
833.82	23386.00
834.25	23540.00
834.68	24097.00
835.12	24529.00
835.55	24575.00
835.98	24073.00
836.42	24471.00
836.85	24606.00
837.29	25001.00
837.72	25049.00
838.15	25061.00
838.59	25447.00
839.02	25556.00
839.45	25644.00
839.89	25958.00
840.32	25936.00
840.75	25701.00
841.18	25234.00
841.62	24887.00
842.05	25071.00
842.48	25122.00
842.92	25136.00
843.35	25109.00
843.78	25160.00
844.22	24824.00
844.65	25325.00
845.08	25613.00
845.51	25888.00
845.95	26087.00
846.38	26048.00
846.81	25865.00
847.24	25580.00
847.68	25357.00
848.11	25284.00
848.54	25002.00
848.97	24926.00
849.41	24772.00
849.84	23687.00
850.27	22740.00
850.70	23936.00
851.14	24581.00
851.57	24669.00
852.00	24734.00
852.43	24957.00
852.87	25127.00
853.30	25035.00
853.73	24283.00
854.16	22320.00
854.59	20198.00
855.03	21616.00
855.46	23276.00
855.89	23809.00
856.32	24033.00
856.75	24384.00
857.18	24545.00
857.62	24391.00
858.05	24682.00
858.48	24536.00
858.91	24822.00
859.34	24831.00
859.77	24954.00
860.21	24906.00
860.64	24977.00
861.07	24792.00
861.50	24764.00
861.93	24558.00
862.36	24392.00
862.79	24345.00
863.23	24244.00
863.66	24098.00
864.09	24165.00
864.52	24323.00
864.95	23970.00
865.38	23874.00
865.81	23452.00
866.24	21452.00
866.67	20757.00
867.10	22363.00
867.54	23554.00
867.97	24050.00
868.40	24060.00
868.83	23819.00
869.26	23695.00
869.69	23798.00
870.12	23560.00
870.55	23578.00
870.98	23451.00
871.41	23333.00
871.84	23349.00
872.27	23486.00
872.70	23653.00
873.13	23387.00
873.56	23554.00
873.99	23231.00
874.42	23437.00
874.85	23390.00
875.28	23387.00
875.71	23452.00
876.14	23715.00
876.57	23621.00
877.00	23302.00
877.43	23053.00
877.86	22895.00
878.29	22688.00
878.72	22810.00
879.15	22770.00
879.58	22490.00
880.01	22897.00
880.44	22671.00
880.87	22079.00
881.30	22449.00
881.73	23094.00
882.16	23092.00
882.59	22947.00
883.02	23265.00
883.45	23407.00
883.88	23328.00
884.31	23289.00
884.74	23302.00
885.17	23025.00
885.60	22802.00
886.03	22399.00
886.46	21911.00
886.88	21921.00
887.31	22188.00
887.74	22492.00
888.17	22558.00
888.60	22705.00
889.03	22932.00
889.46	22938.00
889.89	22654.00
890.32	22583.00
890.75	22689.00
891.17	22508.00
891.60	22599.00
892.03	22384.00
892.46	22212.00
892.89	21382.00
893.32	20935.00
893.75	21166.00
894.17	20652.00
894.60	19996.00
895.03	19373.00
895.46	18554.00
895.89	18819.00
896.32	17976.00
896.74	17281.00
897.17	17281.00
897.60	17045.00
898.03	17859.00
898.46	17509.00
898.89	14831.00
899.31	14841.00
899.74	17336.00
900.17	16701.00
900.60	15978.00
901.02	16021.00
901.45	16169.00
901.88	16086.00
902.31	16170.00
902.74	16456.00
903.16	17498.00
903.59	18945.00
904.02	19108.00
904.45	18924.00
904.87	19224.00
905.30	18725.00
905.73	18772.00
906.16	17541.00
906.58	17028.00
907.01	16017.00
907.44	16080.00
907.87	15928.00
908.29	15901.00
908.72	15552.00
909.15	15637.00
909.57	15593.00
910.00	15262.00
910.43	15405.00
910.86	15554.00
911.28	16616.00
911.71	15735.00
912.14	16254.00
912.56	16165.00
912.99	14548.00
913.42	13736.00
913.84	14661.00
914.27	15941.00
914.70	16144.00
915.12	14324.00
915.55	13829.00
915.98	15229.00
916.40	16183.00
916.83	16022.00
917.26	14345.00
917.68	14361.00
918.11	15399.00
918.53	15888.00
918.96	16540.00
919.39	16340.00
919.81	16887.00
920.24	17396.00
920.66	16852.00
921.09	16389.00
921.52	15972.00
921.94	16484.00
922.37	16592.00
922.79	16118.00
923.22	15729.00
923.65	15365.00
924.07	15416.00
924.50	15355.00
924.92	15622.00
925.35	15555.00
925.77	15260.00
926.20	15362.00
926.63	15626.00
927.05	14898.00
927.48	13656.00
927.90	12527.00
928.33	11882.00
928.75	11640.00
929.18	11168.00
929.60	10368.00
930.03	9910.00
930.45	9619.00
930.88	8946.00
931.30	8157.00
931.73	7311.00
932.15	6789.00
932.58	6771.00
933.00	6591.00
933.43	5708.00
933.85	5314.00
934.28	5392.00
934.70	6612.00
935.13	6373.00
935.55	5715.00
935.98	6111.00
936.40	5792.00
936.83	5272.00
937.25	5540.00
937.68	5335.00
938.10	5820.00
938.52	6754.00
938.95	7787.00
939.37	7937.00
939.80	7168.00
940.22	6737.00
940.65	6506.00
941.07	6469.00
941.49	6561.00
941.92	6527.00
942.34	5920.00
942.77	5683.00
943.19	6392.00
943.61	5563.00
944.04	5144.00
944.46	5937.00
944.89	6183.00
945.31	5609.00
945.73	5456.00
946.16	5875.00
946.58	5972.00
947.00	6232.00
947.43	6284.00
947.85	5950.00
948.27	6580.00
948.70	7105.00
949.12	6119.00
949.54	5472.00
949.97	6165.00
950.39	7472.00
950.81	7706.00
951.24	6799.00
951.66	5922.00
952.08	6048.00
952.51	6533.00
952.93	7352.00
953.35	7511.00
953.78	7265.00
954.20	6815.00
954.62	7194.00
955.04	6894.00
955.47	7300.00
955.89	7243.00
956.31	7092.00
956.74	7871.00
957.16	8829.00
957.58	8143.00
958.00	8184.00
958.43	7323.00
958.85	7075.00
959.27	7683.00
959.69	8425.00
960.12	8340.00
960.54	8733.00
960.96	9318.00
961.38	9011.00
961.80	8393.00
962.23	8681.00
962.65	9736.00
963.07	9346.00
963.49	9176.00
963.91	9356.00
964.34	9561.00
964.76	9890.00
965.18	9973.00
965.60	9356.00
966.02	9432.00
966.45	10199.00
966.87	11305.00
967.29	11495.00
967.71	11325.00
968.13	11768.00
968.55	11812.00
968.98	12161.00
969.40	11847.00
969.82	11975.00
970.24	12218.00
970.66	12289.00
971.08	12083.00
971.50	11991.00
971.92	11586.00
972.35	11654.00
972.77	11247.00
973.19	10745.00
973.61	11132.00
974.03	11168.00
974.45	11342.00
974.87	10988.00
975.29	10733.00
975.71	10642.00
976.13	11355.00
976.56	11643.00
976.98	11552.00
977.40	11356.00
977.82	11401.00
978.24	11498.00
978.66	11345.00
979.08	11520.00
979.50	11415.00
979.92	12009.00
980.34	12130.00
980.76	12152.00
981.18	12196.00
981.60	12052.00
982.02	11882.00
982.44	12120.00
982.86	12311.00
983.28	12274.00
983.70	12059.00
984.12	11993.00
984.54	12146.00
984.96	12150.00
985.38	12244.00
985.80	12068.00
986.22	11981.00
986.64	11818.00
987.06	12017.00
987.48	12123.00
987.90	12192.00
988.32	12166.00
988.74	12167.00
989.16	12165.00
989.58	12129.00
990.00	12157.00
990.42	12003.00
990.84	12078.00
991.26	12028.00
991.67	11897.00
992.09	11876.00
992.51	12012.00
992.93	12028.00
993.35	11965.00
993.77	11854.00
994.19	11838.00
994.61	11735.00
995.03	11781.00
995.45	11791.00
995.87	11827.00
996.28	11694.00
996.70	11793.00
997.12	11832.00
997.54	11901.00
997.96	11991.00
998.38	11957.00
998.80	11971.00
999.21	11948.00
999.63	12068.00
1000.05	12147.00
1000.47	11973.00
1000.89	11793.00
1001.31	11932.00
1001.72	11845.00
1002.14	11854.00
1002.56	11842.00
1002.98	11796.00
1003.40	11741.00
1003.82	11494.00
1004.23	11362.00
1004.65	11516.00
1005.07	11555.00
1005.49	11437.00
1005.90	11446.00
1006.32	11381.00
1006.74	11378.00
1007.16	11337.00
1007.58	11331.00
1007.99	11119.00
1008.41	11186.00
1008.83	11303.00
1009.25	11292.00
1009.66	11301.00
1010.08	11333.00
1010.50	11108.00
1010.92	11100.00
1011.33	11096.00
1011.75	11040.00
1012.17	10975.00
1012.58	10893.00
1013.00	10893.00
1013.42	10609.00
1013.84	10606.00
1014.25	10611.00
1014.67	10575.00
1015.09	10584.00
1015.50	10499.00
1015.92	10301.00
1016.34	10250.00
1016.75	10201.00
1017.17	10214.00
1017.59	10057.00
1018.00	9844.00
1018.42	9871.00
1018.84	9828.00
1019.25	9828.00
1019.67	9756.00
1020.09	9737.00
1020.50	9617.00
1020.92	9577.00
1021.33	9505.00
1021.75	9492.00
1022.17	9406.00
1022.58	9515.00
1023.00	9418.00
1023.42	9311.00
1023.83	9203.00
1024.25	9279.00
1024.66	9155.00
1025.08	9101.00
1025.50	9021.00
1025.91	8961.00
1026.33	8785.00
1026.74	8887.00
1027.16	8828.00
1027.57	8793.00
1027.99	8709.00
1028.40	8659.00
1028.82	8612.00
1029.24	8545.00
1029.65	8422.00
1030.07	8409.00
1030.48	8261.00
1030.90	8303.00
1031.31	8080.00
1031.73	8060.00
1032.14	8041.00
1032.56	8146.00
1032.97	8017.00
1033.39	7912.00
1033.80	7816.00
1034.22	7846.00
1034.63	7846.00
1035.05	7811.00
1035.46	7666.00
1035.88	7681.00
1036.29	7613.00
1036.71	7521.00
1037.12	7473.00
1037.54	7406.00
1037.95	7371.00
1038.36	7381.00
1038.78	7292.00
1039.19	7227.00
1039.61	7242.00
1040.02	7154.00
1040.44	7092.00
1040.85	7024.00
1041.27	7046.00
1041.68	6921.00
1042.09	6932.00
1042.51	6902.00
1042.92	6730.00
1043.34	6734.00
1043.75	6594.00
1044.16	6645.00
1044.58	6538.00
1044.99	6474.00
1045.40	6444.00
1045.82	6405.00
1046.23	6404.00
1046.65	6410.00
1047.06	6315.00
1047.47	6308.00
1047.89	6303.00
1048.30	6209.00
1048.71	6150.00
1049.13	6161.00
1049.54	6090.00
1049.95	6035.00
1050.37	5966.00
1050.78	5958.00
1051.19	5930.00
1051.61	5825.00
1052.02	5809.00
1052.43	5832.00
1052.85	5763.00
1053.26	5757.00
1053.67	5719.00
1054.08	5689.00
1054.50	5586.00
1054.91	5593.00
1055.32	5519.00
1055.74	5439.00
1056.15	5368.00
1056.56	5348.00
1056.97	5297.00
1057.39	5271.00
1057.80	5241.00
1058.21	5204.00
1058.62	5177.00
1059.03	5105.00
1059.45	5040.00
1059.86	5005.00
1060.27	5033.00
1060.68	5000.00
1061.10	4956.00
1061.51	4945.00
1061.92	4927.00
1062.33	4898.00
1062.74	4825.00
1063.16	4801.00
1063.57	4730.00
1063.98	4760.00
1064.39	4713.00
1064.80	4697.00
1065.21	4656.00
1065.63	4658.00
1066.04	4683.00
1066.45	4557.00
1066.86	4535.00
1067.27	4516.00
1067.68	4480.00
1068.10	4471.00
1068.51	4454.00
1068.92	4445.00
1069.33	4389.00
1069.74	4368.00
1070.15	4373.00
1070.56	4296.00
1070.97	4321.00
1071.38	4234.00
1071.80	4247.00
1072.21	4207.00
1072.62	4256.00
1073.03	4157.00
1073.44	4144.00
1073.85	4159.00
1074.26	4165.00
1074.67	4105.00
1075.08	4067.00
1075.49	4064.00
1075.90	4002.00
1076.31	4008.00
1076.72	3975.00
1077.13	3975.00
1077.54	3989.00
1077.95	3899.00
1078.36	3953.00
1078.77	3860.00
1079.19	3817.00
1079.60	3893.00
1080.01	3831.00
1080.42	3858.00
1080.83	3791.00
1081.24	3764.00
1081.65	3786.00
1082.05	3759.00
1082.46	3704.00
1082.87	3702.00
1083.28	3657.00
1083.69	3612.00
1084.10	3619.00
1084.51	3620.00
1084.92	3585.00
1085.33	3606.00
1085.74	3552.00
1086.15	3744.00
1086.56	3559.00
1086.97	3521.00
1087.38	3522.00
1087.79	3504.00
1088.20	3477.00
1088.61	3484.00
1089.02	3472.00
1089.42	3461.00
1089.83	3429.00
1090.24	3408.00
1090.65	3400.00
1091.06	3380.00
1091.47	3356.00
1091.88	3334.00
1092.29	3324.00
1092.70	3288.00
1093.10	3293.00
1093.51	3252.00
1093.92	3243.00
1094.33	3227.00
1094.74	3194.00
1095.15	3196.00
1095.55	3186.00
1095.96	3156.00
1096.37	3143.00
1096.78	3123.00
1097.19	3112.00
1097.60	3073.00
1098.00	3086.00
1098.41	3047.00
1098.82	3089.00
1099.23	3050.00
1099.64	3046.00
1100.04	3001.00
1100.45	2985.00
1100.86	3007.00
1101.27	2959.00
1101.67	2957.00
1102.08	2939.00
1102.49	2950.00
1102.90	2940.00
1103.31	2917.00
1103.71	2896.00
1104.12	2909.00
1104.53	2867.00
1104.93	2870.00
1105.34	2861.00
1105.75	2853.00
1106.16	2841.00
1106.56	2862.00
1106.97	2829.00
1107.38	2841.00
1107.78	2820.00
1108.19	2818.00
1108.60	2815.00
1109.01	2794.00
1109.41	2809.00
1109.82	2776.00
1110.23	2783.00
1110.63	2773.00
1111.04	2770.00
1111.45	2785.00
1111.85	2764.00
1112.26	2762.00
1112.67	2752.00
1113.07	2761.00
1113.48	2733.00
1113.88	2729.00
1114.29	2725.00
1114.70	2578.00
1115.10	2579.00
1115.51	2579.00
1115.92	2576.00
>>>>>End Processed Spectral Data<<<<<
